time_ms,imu_roll,imu_pitch,ax,ay,az,gx,gy,gz,Setpoint_rollRate,"set_pitchRate,",Setpoint_yawRate,Setpoint_roll,Setpoint_pitch
101000,2079,-1396,65,88,1014,-22,-28,100,-6237,-4190,240,0,0
149000,2739,-1838,67,85,1023,-22,-89,-144,-7922,-5312,359,0,0
201000,3282,-2216,59,85,1013,-83,-211,39,-9727,-6768,480,39,-39
249000,3668,-2485,58,90,1009,-22,-28,-83,-10954,-7216,359,-39,39
301000,3993,-2704,66,90,1012,-22,-211,39,-11979,-8114,359,0,0
349000,4221,-2864,57,85,997,38,-211,-22,-12559,-8517,359,0,0
401000,4409,-2997,57,85,1017,-22,-28,39,-13229,-8991,480,0,0
449000,4545,-3095,63,88,1003,-83,-211,-144,-13693,-9241,359,-39,0
501000,4663,-3179,54,92,1048,-22,-28,222,-13990,-9658,359,0,-39
549000,4748,-3238,57,80,854,221,-394,-1669,-14206,-9677,240,0,0
601000,4817,-3301,63,98,1084,-2768,-882,2358,-14452,-9905,240,0,0
649000,4870,-3305,38,34,857,-1487,-821,-2890,-14588,-9916,359,0,0
701000,4911,-3359,21,92,1030,-2097,154,2480,-14615,-10199,240,39,-39
749000,4935,-3383,32,58,1012,1503,1375,-1364,-14882,-10060,119,-39,39
801000,4976,-3354,54,113,931,99,1436,588,-15050,-9943,119,-39,39
849000,4991,-3324,18,61,763,-632,216,832,-14977,-9975,119,0,0
901000,5047,-3333,45,125,1045,710,-89,-632,-15142,-10000,0,0,0
949000,5088,-3323,50,132,1059,-144,338,405,-15261,-10075,0,0,-39
1001000,5098,-3387,45,122,978,649,-1309,893,-15415,-10163,0,-39,0
1049000,5120,-3408,31,90,980,99,643,-144,-15350,-10240,0,0,0
1101000,5100,-3416,70,78,960,-693,-150,1381,-15300,-10249,119,0,0
1149000,5105,-3492,44,127,1007,-266,-943,222,-15184,-10577,240,39,-39
1201000,5130,-3468,53,87,1057,-571,1375,344,-15392,-10404,240,0,0
1249000,5119,-3431,143,17,1228,-327,-150,-22,-15506,-10294,240,-39,0
1301000,5038,-3459,-40,126,893,-4843,-882,-2097,-15114,-10377,240,0,0
1349000,5058,-3398,167,9,666,6142,-1431,39,-15057,-10184,119,0,0
1401000,5000,-3378,-16,87,1090,-1303,582,4250,-15000,-10135,119,0,0
1449000,4927,-3336,-180,157,926,2114,-89,5227,-14810,-9979,240,0,0
1501000,4908,-3309,-14,98,812,1076,338,1259,-14724,-9927,240,0,0
1549000,4905,-3236,-17,11,910,710,582,2480,-14793,-9601,119,-39,39
1601000,4932,-3239,90,17,1191,-266,-638,-144,-14798,-9717,119,0,0
1649000,4938,-3242,83,145,762,221,-1248,-1425,-14837,-9769,119,0,0
1701000,4946,-3231,94,135,902,343,-1126,-632,-14840,-9693,240,0,0
1749000,4949,-3226,-83,86,1014,-693,2169,832,-14989,-9769,240,-39,0
1801000,4997,-3146,79,148,1314,2297,-394,-1364,-15113,-9438,240,-39,0
1849000,5007,-3161,-80,236,884,2297,-516,1198,-15032,-9475,119,0,0
1901000,5027,-3124,-38,-95,1334,99,2413,-1914,-15083,-9372,119,0,0
1949000,5045,-3103,339,207,1056,1930,-3873,4067,-15066,-9201,119,0,0
2001000,5074,-3156,182,245,1396,1015,-333,710,-15104,-9588,240,39,-39
2049000,5025,-3033,-151,37,814,-1120,2718,-6003,-15258,-9173,119,-39,0
2101000,5039,-3051,170,140,469,-1059,-3629,9072,-15239,-9033,119,-39,39
2149000,5018,-3022,140,194,1516,1625,1253,-5881,-15035,-9127,119,0,0
2201000,5018,-2957,45,200,1492,2114,-1248,-7895,-15055,-8873,119,0,0
2249000,5034,-3065,-179,-170,455,-876,-272,-2768,-15236,-9136,0,-39,0
2301000,5037,-3039,320,141,1232,-1364,32,14809,-15232,-9117,0,-39,0
2349000,5061,-3092,122,225,1441,954,-2530,-12473,-15147,-9242,0,0,0
2401000,5098,-3111,100,173,1042,38,2047,-6308,-15414,-9213,0,-39,39
2449000,5095,-3033,-172,14,714,-2890,-760,-9970,-15312,-9081,-119,0,0
2501000,5135,-3141,25,-79,1255,3639,277,17922,-15406,-9423,-119,0,0
2549000,5088,-3013,337,147,684,-4172,1131,-1731,-15333,-9037,119,0,0
2601000,5026,-3104,400,91,934,-205,-2042,12368,-15078,-9434,119,0,-39
2649000,5002,-3027,87,242,1234,1015,1314,-13693,-14999,-9178,0,0,0
2701000,4980,-3080,38,217,528,-754,-2347,-10764,-14940,-9242,119,0,0
2749000,4984,-3085,-293,34,991,2052,2840,2358,-14942,-9363,0,0,0
2801000,4909,-2986,-61,173,785,160,2718,-9116,-14729,-8960,0,0,0
2849000,4791,-3020,-56,230,756,832,-1676,-266,-14473,-9023,0,0,0
2901000,4750,-3039,33,112,1517,-1609,2901,5104,-14250,-9119,0,0,0
2949000,4725,-2919,-68,-34,560,-693,1680,4555,-14206,-8918,-119,0,-39
3001000,4791,-2958,-20,269,934,1747,-3507,39,-14495,-8876,-360,-39,0
3049000,4839,-2876,55,107,500,-5637,3878,-3317,-14573,-8842,-719,0,-39
3101000,4865,-2891,-90,-123,1269,1381,-3201,5593,-14596,-8674,-480,0,0
3149000,4896,-2945,-148,-65,1240,-937,5770,2480,-14599,-9095,-119,39,-39
3201000,4847,-2800,57,158,845,2175,-3873,1381,-14422,-8522,0,39,-39
3249000,4852,-2994,-158,107,795,-2829,3756,-4538,-14694,-8993,0,-39,0
3301000,4884,-2858,-156,-30,1248,1564,1253,11330,-14653,-8696,0,0,-39
3349000,4891,-2897,-155,16,1755,-144,1192,2480,-14650,-8720,119,0,0
3401000,4896,-2913,-148,111,414,2114,2413,8278,-14689,-8739,119,0,0
3449000,4866,-2839,-254,145,1230,1808,3328,-2585,-14640,-8546,0,0,0
3501000,4850,-2960,25,111,1388,-1914,-4544,9133,-14551,-8881,0,0,0
3549000,4853,-2914,-25,66,1211,-876,6868,-1303,-14590,-8868,119,0,0
3601000,4820,-3028,221,297,1320,649,-9183,-22,-14341,-9204,119,39,-39
3649000,4815,-3034,201,311,637,-2707,7784,-8322,-14519,-9254,0,0,0
3701000,4811,-2957,179,157,328,1503,-3873,527,-14555,-8751,0,-39,39
3749000,4875,-3000,3,49,639,1015,2962,-3623,-14574,-9092,0,0,0
3801000,4923,-2892,288,289,1112,2175,-1004,-3012,-14769,-8677,0,0,0
3849000,4962,-2925,63,284,1300,-2158,-455,-6674,-14778,-8911,119,39,-39
3901000,4961,-2817,49,193,1577,-1303,-2164,-6918,-14884,-8451,119,0,0
3949000,4925,-2710,92,243,639,-3928,-1004,-5637,-14992,-8005,119,-39,39
4001000,4896,-2813,150,-43,1524,1747,-2164,-2585,-14690,-8440,119,0,0
4049000,4852,-2713,160,99,1179,-2463,3206,-388,-14537,-8235,119,0,0
4101000,4774,-2668,71,161,1196,893,-3140,-5087,-14324,-8006,0,0,0
4149000,4776,-2825,165,303,1239,3090,32,283,-14241,-8468,119,0,0
4201000,4705,-2615,-64,-118,615,-2158,1619,4616,-14116,-7845,119,0,0
4249000,4642,-2741,204,-27,778,710,-4056,6447,-14037,-8075,0,-39,0
4301000,4599,-2749,172,-78,529,588,4610,4067,-13918,-8249,119,-39,0
4349000,4530,-2668,182,-71,644,2358,-760,2358,-13571,-7959,119,0,0
4401000,4508,-2821,-47,75,893,-1853,1314,4860,-13646,-8465,240,-39,0
4449000,4474,-2785,123,-128,1588,649,1131,3884,-13449,-8484,240,0,-39
4501000,4449,-2774,-50,-151,888,405,887,6020,-13348,-8323,240,0,0
4549000,4403,-2849,-182,-125,464,-1914,-455,6386,-13378,-8659,240,-39,-39
4601000,4407,-2850,-78,62,1181,1259,6014,1259,-13341,-8552,119,-39,0
4649000,4413,-2909,-269,20,1658,3761,-577,2236,-13215,-8664,119,0,0
4701000,4432,-3016,-106,86,1721,2480,338,10231,-13298,-9048,240,0,0
4749000,4423,-2908,-132,-17,999,-4477,1619,4555,-13362,-8743,119,0,0
4801000,4410,-3041,82,262,694,3395,93,1870,-13232,-9125,119,0,0
4849000,4411,-2986,81,244,817,1320,4610,-3928,-13277,-9044,240,0,0
4901000,4429,-2921,58,62,870,2663,-1370,2236,-13167,-8884,240,39,-39
4949000,4455,-2981,-139,20,1072,-22,-89,-1547,-13471,-8871,119,-39,39
5001000,4453,-2867,319,223,1001,649,826,-6125,-13481,-8483,240,-39,39
5049000,4472,-2861,245,199,981,99,93,-8933,-13415,-8616,119,0,0
5101000,4489,-2973,42,263,443,2175,338,-4782,-13469,-8919,119,0,0
5149000,4496,-2840,67,184,1139,954,3145,-4050,-13459,-8609,240,0,0
5201000,4445,-2919,45,-76,796,-388,-2530,-1486,-13335,-8758,240,0,0
5249000,4378,-2961,28,-138,765,-1853,4549,3273,-13168,-8927,240,0,0
5301000,4188,-2872,28,-101,508,38,-2347,1259,-12684,-8496,119,-39,39
5349000,4052,-3167,77,-59,953,-22,-2774,1992,-12237,-9346,240,0,0
5401000,3914,-3030,-190,56,1310,-3318,3267,4616,-11744,-9090,119,0,0
5449000,3828,-3066,-146,81,1123,-2707,-6009,1503,-11606,-9018,240,0,0
5501000,3893,-3084,-176,243,1241,2785,6868,5104,-11680,-9732,480,0,-160
5549000,3987,-2810,-51,10,665,1503,-1554,2785,-12059,-9655,359,-39,-399
5601000,4122,-3029,15,134,1029,2724,-5765,7424,-12366,-10407,359,0,-440
5649000,4191,-2821,80,-253,1052,1381,2535,466,-12594,-9769,359,-39,-399
5701000,4252,-2785,116,284,884,282,-5826,710,-12758,-8476,240,0,-39
5749000,4338,-2949,28,0,929,-2341,-2164,-5393,-13019,-8959,359,0,-39
5801000,4355,-2804,21,209,824,-2280,2169,-2951,-12946,-8652,359,39,-80
5849000,4414,-2866,168,38,794,343,-3568,-3256,-13353,-8508,240,-39,0
5901000,4408,-2989,176,43,1007,-937,1253,-5271,-13344,-9089,240,-39,-39
5949000,4416,-2958,-93,138,809,-1059,1253,-2158,-13227,-9050,240,0,-39
6001000,4413,-3115,-39,123,763,-388,-2591,4067,-13360,-9347,359,-39,0
6049000,4440,-3181,63,69,996,771,1619,-1731,-13290,-9654,240,0,-39
6101000,4462,-3180,38,21,708,2480,-760,39,-13388,-9660,119,0,-39
6149000,4506,-3265,140,85,1314,-1242,-577,-1608,-13479,-10007,240,0,-80
6201000,4509,-3293,58,59,962,1381,1314,161,-13529,-9999,240,0,-39
6249000,4511,-3362,45,36,842,-1853,-943,-693,-13573,-10161,240,0,-39
6301000,4524,-3441,56,69,1151,-205,-272,100,-13572,-10444,240,0,-39
6349000,4536,-3434,9,67,936,282,826,1137,-13518,-10540,359,39,-80
6401000,4553,-3488,43,97,1200,-1059,-1004,161,-13660,-10586,359,0,-39
6449000,4565,-3510,119,60,960,-1548,277,-632,-13741,-10644,359,0,-39
6501000,4602,-3479,-6,141,892,1076,521,161,-13806,-10559,480,0,-39
6549000,4655,-3510,-2,125,1048,1503,277,771,-14051,-10528,359,-39,0
6601000,4692,-3460,-8,106,1071,160,1375,283,-14198,-10381,359,-39,0
6649000,4717,-3412,81,73,1061,-22,-516,-1364,-14143,-10366,359,0,-39
6701000,4768,-3391,119,79,1139,-1548,-333,-205,-14304,-10295,359,0,-39
6749000,4827,-3310,126,49,927,-1181,154,-815,-14463,-10092,480,0,-39
6801000,4942,-3282,111,94,927,710,-699,-1242,-14827,-9966,480,0,-39
6849000,5011,-3321,16,114,1119,1564,338,344,-15088,-9957,480,-39,0
6901000,5053,-3344,64,98,1036,-327,-150,-815,-15280,-10153,480,-39,-39
6949000,5081,-3374,54,23,1076,-1364,-28,-510,-15223,-10239,480,0,-39
7001000,5060,-3397,81,81,1089,-998,154,466,-15182,-10433,359,0,-80
7049000,5022,-3418,92,37,1134,-510,-89,283,-15098,-10366,480,0,-39
7101000,4948,-3440,68,60,1181,1198,-394,1503,-14844,-10441,480,0,-39
7149000,4896,-3430,47,95,1169,2480,154,-83,-14682,-10546,359,0,-80
7201000,4866,-3417,34,121,1023,2236,521,-1181,-14718,-10373,480,-39,-39
7249000,4849,-3419,-38,146,946,2114,765,-1425,-14503,-10414,480,0,-39
7301000,4841,-3412,42,64,963,-205,-821,-754,-14643,-10357,480,-39,-39
7349000,4807,-3443,-14,52,941,-998,-455,-144,-14333,-10568,480,39,-80
7401000,4804,-3453,-4,22,933,-1853,460,1259,-14413,-10481,480,0,-39
7449000,4819,-3464,53,43,1037,-1181,-638,1137,-14606,-10609,480,-39,-80
7501000,4814,-3489,102,65,1182,-876,216,344,-14563,-10589,480,-39,-39
7549000,4813,-3471,59,61,878,588,765,-449,-14569,-10428,359,-39,0
7601000,4819,-3474,115,95,1270,710,-211,-571,-14578,-10542,359,-39,-39
7649000,4810,-3484,59,142,1012,1686,460,-205,-14391,-10578,359,0,-39
7701000,4838,-3489,15,113,850,466,-150,222,-14515,-10587,359,0,-39
7749000,4880,-3457,-3,89,897,282,338,-327,-14706,-10526,480,-39,-39
7801000,4954,-3360,10,133,897,221,399,1015,-14862,-10322,480,0,-80
7849000,5047,-3323,84,135,1047,282,-455,649,-15203,-9986,359,-39,0
7901000,5090,-3305,90,74,1285,-876,643,2541,-15272,-10036,359,0,-39
7949000,5081,-3334,85,105,1036,-2097,-1126,-83,-15264,-10089,240,0,-39
8001000,5032,-3405,53,122,832,-571,-638,-2341,-15096,-10336,359,0,-39
8049000,5000,-3396,44,83,954,-510,582,-2402,-15031,-10324,480,0,-39
8101000,5002,-3387,-9,125,778,1808,93,-3195,-14886,-10403,359,39,-80
8149000,5041,-3353,24,73,915,893,826,-937,-15223,-10081,480,-39,0
8201000,5085,-3291,63,70,1108,649,643,649,-15376,-9874,480,-39,0
8249000,5081,-3299,70,30,1139,1015,-89,283,-15249,-10010,359,0,-39
8301000,5057,-3289,62,119,973,-22,1558,649,-15173,-9987,359,0,-39
8349000,5052,-3282,90,136,859,-388,-272,-327,-15131,-9971,359,0,-39
8401000,5048,-3294,110,133,1131,343,-272,-1425,-15024,-10123,480,39,-80
8449000,4998,-3320,105,107,974,-449,-211,-327,-15027,-10064,359,0,-39
8501000,4961,-3334,72,65,982,99,-516,-449,-15005,-10004,359,-39,0
8549000,4927,-3343,119,60,1114,160,-699,-83,-14813,-10143,359,0,-39
8601000,4870,-3339,119,50,1028,771,-150,-449,-14610,-10138,359,0,-39
8649000,4847,-3348,39,68,792,-205,-1065,-1242,-14547,-10160,480,0,-39
8701000,4847,-3321,139,75,1138,1442,154,-2402,-14421,-10204,480,39,-80
8749000,4817,-3310,68,135,1261,1625,521,-2341,-14594,-10062,359,-39,-39
8801000,4786,-3343,50,65,890,99,521,-388,-14479,-10149,480,-39,-39
8849000,4793,-3365,45,30,978,-205,643,2053,-14385,-10212,359,0,-39
8901000,4818,-3383,53,68,1079,38,-150,710,-14456,-10270,359,0,-39
8949000,4826,-3411,125,61,1217,527,-272,1870,-14480,-10338,480,0,-39
9001000,4809,-3454,15,54,751,-571,-760,1564,-14427,-10482,359,0,-39
9049000,4835,-3475,7,68,1217,405,93,2480,-14611,-10551,480,-39,-39
9101000,4851,-3473,46,97,1065,-693,-516,649,-14673,-10539,480,-39,-39
9149000,4874,-3478,27,103,919,-327,-821,1259,-14724,-10548,359,-39,-39
9201000,4896,-3473,92,104,1021,-998,-638,283,-14688,-10540,480,0,-39
9249000,4909,-3460,-16,119,899,-1426,-455,-510,-14752,-10514,480,0,-39
9301000,4910,-3474,50,73,1140,-815,-943,-693,-14731,-10542,480,0,-39
9349000,4899,-3489,59,26,945,-1426,338,39,-14855,-10587,480,-39,-39
9401000,4900,-3506,103,46,913,-2158,-2103,954,-14700,-10760,480,0,-80
9449000,4907,-3526,63,89,1091,-1487,-28,893,-14860,-10584,480,-39,0
9501000,4919,-3504,122,82,1025,-327,-272,-266,-14877,-10512,359,-39,0
9549000,4937,-3491,116,73,1024,160,-1431,-327,-14807,-10576,359,0,-39
9601000,4942,-3465,88,127,1000,1015,-821,-1731,-14826,-10517,359,0,-39
9649000,4966,-3427,134,87,990,1198,-333,-1975,-14991,-10400,480,-39,-39
9701000,4970,-3429,105,134,1105,38,-760,-693,-14910,-10407,480,0,-39
9749000,4971,-3428,39,104,843,-266,-150,-1731,-14916,-10415,480,0,-39
9801000,4979,-3412,67,92,1238,160,93,-1303,-15059,-10236,480,-39,0
9849000,4981,-3426,46,77,868,160,765,-83,-14946,-10534,359,0,-80
9901000,4979,-3414,66,41,1335,99,460,588,-14938,-10362,359,0,-39
9949000,4957,-3425,92,59,814,588,-821,710,-14870,-10373,480,0,-39
10001000,4952,-3437,85,90,1098,527,-28,649,-14858,-10431,480,0,-39
10049000,4933,-3441,50,106,902,588,-394,100,-14914,-10301,359,-39,0
10101000,4928,-3466,93,119,933,-510,-760,-22,-14785,-10520,359,0,-39
10149000,4924,-3481,67,134,985,-144,-272,-632,-14771,-10563,359,0,-39
10201000,4931,-3486,50,58,957,-144,-638,-327,-14794,-10578,359,0,-39
10249000,4938,-3484,1,116,859,-144,-89,-937,-14811,-10593,480,0,-39
10301000,4939,-3481,45,105,839,1259,32,-2158,-14817,-10564,480,0,-39
10349000,4969,-3481,20,36,1051,954,887,-1669,-15018,-10472,359,-39,0
10401000,4982,-3492,4,33,915,-83,643,649,-15066,-10478,480,-39,0
10449000,5008,-3500,78,21,984,-144,704,710,-14902,-10737,359,39,-80
10501000,5009,-3521,65,29,949,-998,-455,39,-15029,-10685,359,0,-39
10549000,5019,-3522,80,88,1001,-205,-638,-1242,-14926,-10809,480,39,-80
10601000,5051,-3468,89,93,1125,-327,-28,-1120,-15153,-10526,480,0,-39
10649000,5053,-3446,85,102,1412,-1853,-1004,-1669,-15288,-10332,359,-39,0
10701000,5032,-3471,64,87,930,-937,-1004,-1425,-15217,-10655,480,-39,-80
10749000,5069,-3453,91,99,1082,160,-516,-2890,-15188,-10482,480,0,-39
10801000,5067,-3448,74,146,1099,405,93,-2402,-15201,-10584,359,0,-80
10849000,5063,-3476,18,98,712,-205,521,-3195,-15192,-10552,480,0,-39
10901000,5062,-3488,0,128,988,-205,704,-1181,-15187,-10584,480,0,-39
10949000,5054,-3512,-39,130,1085,588,93,-388,-15158,-10756,359,0,-80
11001000,5043,-3506,82,111,909,-327,-89,405,-15249,-10639,359,-39,-39
11049000,5028,-3503,100,169,1004,832,-516,-1181,-15063,-10617,480,0,-39
11101000,5023,-3498,61,101,1083,771,-150,-937,-15071,-10616,480,0,-39
11149000,5025,-3492,45,84,941,527,-760,283,-15049,-10583,480,0,-39
11201000,5020,-3489,5,113,1077,99,-272,-144,-15061,-10588,480,0,-39
11249000,5028,-3478,72,91,1197,527,-28,-571,-15210,-10550,359,-39,-39
11301000,5044,-3483,64,100,952,1564,154,-1486,-15254,-10571,480,-39,-39
11349000,5047,-3465,62,136,1258,1381,826,-998,-15121,-10553,480,0,-39
11401000,5018,-3459,58,95,1081,-266,216,-2707,-15055,-10499,359,0,-39
11449000,5006,-3474,121,71,976,-388,-272,-1120,-15030,-10525,480,0,-39
11501000,5005,-3472,155,59,965,221,-699,-693,-14897,-10658,480,39,-80
11549000,5020,-3466,115,73,1093,1076,-1187,-388,-15158,-10497,480,-39,-39
11601000,5003,-3474,155,125,1108,893,-455,-1975,-15131,-10543,480,-39,-39
11649000,4996,-3450,118,125,936,954,-272,-1364,-14980,-10481,359,0,-39
11701000,5017,-3447,90,113,1286,893,-882,-327,-15053,-10461,359,0,-39
11749000,5015,-3430,50,96,1212,893,887,588,-15035,-10446,480,0,-39
11801000,5038,-3410,71,105,1003,832,-333,-876,-15116,-10352,480,0,-39
11849000,5038,-3424,25,109,1205,-144,-28,-83,-15137,-10517,480,0,-80
11901000,5008,-3429,2,88,1003,282,765,1442,-15144,-10409,480,-39,-39
11949000,5007,-3411,65,33,1174,-998,-516,2358,-15046,-10359,480,0,-39
12001000,4981,-3383,141,51,937,343,338,-83,-15063,-10151,359,-39,0
12049000,4936,-3353,118,70,804,99,154,466,-14710,-10299,359,39,-80
12101000,4933,-3355,57,78,961,832,154,1564,-14799,-10066,359,0,0
12149000,4903,-3364,78,35,1145,-3623,-272,222,-14923,-10099,480,-39,0
12201000,4916,-3398,-10,64,870,-3379,1070,2907,-14749,-10195,480,0,0
12249000,4925,-3415,104,81,1074,-2280,-577,-22,-14898,-10245,359,-39,0
12301000,4952,-3382,-35,42,1000,-3135,704,405,-14856,-10267,359,0,-39
12349000,4989,-3362,85,140,1110,-2463,-272,1198,-15001,-10189,240,0,-39
12401000,5038,-3382,140,-11,625,-2463,32,1320,-15115,-10268,119,0,-39
12449000,5070,-3412,100,-58,923,-4355,-760,893,-15059,-10365,119,39,-39
12501000,5048,-3450,-99,209,1216,1259,826,6020,-15026,-10470,240,39,-39
12549000,4969,-3499,179,-3,1107,-2707,-577,-815,-15005,-10434,240,0,0
12601000,4930,-3550,183,108,1040,-1181,-272,1381,-14792,-10650,240,0,0
12649000,4909,-3550,305,-39,1161,-1242,-760,-5148,-14735,-10791,359,0,-39
12701000,4866,-3557,163,19,882,1442,460,-2524,-14598,-10793,359,0,-39
12749000,4835,-3527,-5,-14,790,-998,1192,1381,-14528,-10769,480,0,-39
12801000,4807,-3485,249,158,1088,-2219,-1431,-5515,-14421,-10577,359,0,-39
12849000,4761,-3436,180,234,1189,-1792,1253,-2768,-14327,-10466,480,0,-39
12901000,4716,-3383,84,121,899,-1120,-760,-1181,-14149,-10271,480,0,-39
12949000,4702,-3346,0,85,1107,343,1192,832,-14101,-10208,359,0,-39
13001000,4694,-3279,98,101,1052,-2646,-272,-2158,-14082,-9959,359,0,-39
13049000,4685,-3272,-4,90,762,282,338,1503,-14043,-9928,359,0,-39
13101000,4744,-3243,110,38,878,-1242,643,1259,-14233,-9851,480,0,-39
13149000,4780,-3193,-58,16,1024,1015,32,649,-14420,-9582,480,-39,0
13201000,4731,-3238,29,108,1107,-327,-1431,405,-14313,-9714,359,-39,0
13249000,4741,-3219,62,124,1127,-1975,1375,-693,-14220,-9827,359,0,-39
13301000,4830,-3211,43,113,1065,-327,-1309,-205,-14491,-9754,359,0,-39
13349000,4836,-3192,152,33,819,-3562,1436,771,-14573,-9706,359,0,-39
13401000,4845,-3114,-39,89,709,-998,-1798,588,-14537,-9462,480,0,-39
13449000,4892,-3143,129,40,1036,-693,-882,-754,-14766,-9462,480,-39,0
13501000,4865,-3029,41,107,993,3700,2901,1809,-14717,-9088,480,-39,0
13549000,4818,-3090,-108,82,1165,-1059,-2103,-2280,-14516,-9381,359,0,-39
13601000,4732,-3007,110,-50,981,-1120,3328,2236,-14196,-9143,240,0,-39
13649000,4603,-2949,-49,179,853,-449,-1309,-815,-13865,-8938,359,0,-39
13701000,4522,-3051,185,-45,1360,-4416,-1187,2175,-13567,-9153,359,0,0
13749000,4483,-2967,-105,194,507,-83,-1126,-1914,-13587,-8767,240,-39,39
13801000,4473,-3071,-128,135,778,2236,2901,-2829,-13540,-9093,119,-39,39
13849000,4462,-2911,146,9,678,-5210,3084,4616,-13365,-8788,119,0,0
13901000,4512,-2916,75,249,1393,1991,-4300,-3684,-13538,-8750,240,0,0
13949000,4513,-2905,-78,-68,1267,5593,3206,39,-13465,-8784,359,0,0
14001000,4278,-2904,-34,-165,806,-2158,-2469,710,-12836,-8713,359,0,0
14049000,4144,-3053,203,-40,468,-5088,-211,5715,-12590,-9168,359,-39,0
14101000,3984,-2985,-80,278,969,-754,-3446,-6186,-11952,-9075,359,0,-39
14149000,3952,-3038,-262,-59,1011,3029,1253,-4660,-11840,-9161,240,0,0
14201000,3858,-2964,-160,121,1663,3212,2657,-9299,-11455,-9012,240,39,-39
14249000,3825,-3002,299,-177,1806,3212,765,12917,-11342,-9079,240,39,-39
14301000,3821,-3034,114,-49,832,2297,338,4921,-11464,-9104,240,0,0
14349000,3749,-2998,22,308,724,-1426,826,-5698,-11391,-9009,359,-39,0
14401000,3707,-3013,325,93,1243,1198,338,8156,-11242,-9040,359,-39,0
14449000,3730,-2940,227,139,809,1259,521,-6430,-11147,-8893,359,0,0
14501000,3834,-2997,-99,320,928,2907,-2347,-14609,-11503,-8991,240,0,0
14549000,3872,-2937,116,366,1313,-1181,2596,649,-11611,-8873,359,0,0
14601000,3863,-2860,134,345,948,2052,-4117,-5759,-11589,-8101,359,0,160
14649000,3928,-2950,236,165,1143,-937,-1126,-5210,-11801,-8927,359,0,0
14701000,3880,-2657,-78,102,1121,-2341,-455,-13266,-11762,-7973,359,-39,0
14749000,3852,-2837,-76,286,791,2419,-4056,1870,-11536,-8454,359,0,0
14801000,3824,-2610,-65,414,917,-571,3328,-6125,-11473,-7832,359,0,0
14849000,3797,-2708,105,318,571,-327,-5582,-3317,-11424,-8031,359,0,0
14901000,3980,-2699,193,145,1227,-2036,3084,-8444,-11940,-8098,359,0,0
14949000,4140,-2504,-176,39,704,-510,4976,649,-12474,-7649,240,-39,0
15001000,4228,-2747,-25,285,1384,1869,-4605,-12290,-12684,-8363,480,0,-39
15049000,4093,-2767,-133,362,709,-144,7601,-1731,-12365,-8441,359,0,0
15101000,4077,-2725,47,278,418,-510,-7413,-2890,-12233,-8175,240,0,0
15149000,4058,-2954,164,123,962,-3135,582,-4294,-12269,-8897,240,0,0
15201000,4019,-2671,402,179,1031,2052,-1676,-6247,-12058,-8013,359,0,0
15249000,4080,-2886,305,116,1705,466,-2957,-7041,-12352,-8617,119,-39,0
15301000,4006,-2781,-163,271,375,1869,3939,-9604,-12138,-8343,-119,-39,0
15349000,3912,-2850,59,362,2015,-327,-4910,-754,-11731,-8448,-119,0,0
15401000,3907,-2820,103,-46,994,3456,4061,-2707,-11722,-8581,-239,0,-39
15449000,3939,-2692,156,49,591,-2219,-2164,-1731,-11858,-7996,-360,0,0
15501000,3954,-2819,407,139,577,893,-699,-5393,-11863,-8458,-239,0,0
15549000,3990,-2696,370,42,1324,-3501,-28,283,-11985,-8254,-239,0,-39
15601000,3944,-2727,-115,-96,735,-1487,-333,-4782,-11952,-8183,-239,-39,0
15649000,4075,-2726,88,-167,2201,2785,216,222,-12269,-8073,-360,-39,39
15701000,3952,-2603,-179,-49,417,-1303,4854,5471,-11856,-7691,-239,0,39
15749000,3808,-2844,-149,-31,1943,1320,-5643,2663,-11403,-8356,-119,39,0
15801000,3519,-2849,-88,250,1381,-1670,9859,6935,-10557,-8429,-239,0,39
15849000,3266,-2598,-66,188,453,-3257,-3446,588,-9984,-7618,-239,-39,39
15901000,3480,-2678,-117,-30,179,2846,2901,-693,-10442,-8035,-119,0,0
15949000,3658,-2043,234,-57,2201,-1731,1925,3212,-10941,-5077,0,0,399
16001000,3484,-2265,-3,247,-44,-1548,-6314,3823,-10573,-1756,119,-39,1679
16049000,3476,-2306,10,83,1614,588,3206,2175,-10397,3242,240,0,3399
16101000,3477,-2425,166,40,2201,99,-5826,-1425,-10431,7362,240,0,4879
16149000,3475,-2632,-17,-195,2201,-2036,643,588,-10510,11448,240,0,6440
16201000,3472,-2579,-102,29,182,282,-1431,1259,-10417,14101,240,0,7279
16249000,3583,-2699,54,-11,1005,1747,-3690,-2463,-10706,13801,240,0,7279
16301000,3617,-2553,-29,70,1301,1198,1925,1747,-10971,13938,119,-39,7200
16349000,3567,-2654,179,-44,1269,-1426,-3140,-937,-10592,12753,240,39,6879
16401000,3498,-2683,155,139,2201,1747,1863,2114,-10375,8870,240,39,5639
16449000,3485,-2711,-26,-20,1736,1015,-2835,-1303,-10431,4896,119,0,4319
16501000,3624,-2799,-70,70,289,-1181,3817,1809,-7392,1320,240,1159,3239
16549000,3706,-2673,61,47,116,-1487,2474,-1181,-7155,1399,0,1280,3159
16601000,3844,-2869,152,-43,1887,-2707,-2835,1931,-7453,751,119,1359,3120
16649000,3885,-2942,-77,6,1147,160,4488,1503,-7554,431,0,1359,3120
16701000,3903,-2832,-3,-143,165,1564,-1187,1076,-8590,863,119,1040,3120
16749000,3923,-2893,-7,54,492,4311,-272,-1120,-11539,1046,119,79,3239
16801000,3845,-2808,166,69,-375,-3440,93,1442,-11537,1773,240,0,3399
16849000,3754,-2911,28,6,834,38,-882,588,-11188,1519,240,39,3399
16901000,3707,-2946,-61,17,908,-83,-333,-632,-11241,1361,240,-39,3399
16949000,3631,-2988,44,39,1346,1320,-760,710,-10898,1866,359,0,3599
17001000,3564,-2951,87,86,2201,-693,582,-388,-10693,4345,480,0,4400
17049000,3609,-2902,-194,-21,152,-449,-272,-205,-10962,4960,480,-39,4560
17101000,3615,-2957,26,-111,2185,-327,-943,-754,-10965,3966,480,-39,4279
17149000,3510,-2869,50,39,2201,-3867,2047,2114,-10594,1552,359,0,3399
17201000,3454,-2864,175,83,1519,-1426,-882,-632,-10364,1006,359,0,3199
17249000,3376,-2765,-12,79,-254,-1609,1863,2053,-10043,1131,480,39,3159
17301000,3295,-2746,-121,-47,671,-4660,-1859,3273,-9885,1360,480,0,3199
17349000,3239,-2634,-45,168,-95,-754,3511,-266,-9883,1500,480,-39,3159
17401000,3189,-2434,151,-48,2061,-6980,2901,1381,-9567,7215,480,0,4839
17449000,3097,-2427,48,229,-348,-2768,-5155,1259,-9182,11288,599,39,6159
17501000,2939,-2468,121,111,1509,-5576,521,-144,-297,18033,480,2839,8480
17549000,2700,-2415,169,-31,1417,-9665,-1554,1320,8827,19846,480,5680,9040
17601000,2439,-2463,-147,88,1172,-3928,-4483,-2463,15001,27169,480,7439,11519
17649000,2300,-2669,55,-123,2201,-3745,-5887,-998,19840,28905,599,8959,12279
17701000,2267,-2677,215,156,2083,1747,1314,-1669,20556,28806,480,9119,12279
17749000,2340,-2630,31,-230,590,6081,-882,-1181,19531,26463,359,8840,11440
17801000,2635,-2816,-12,-18,665,13283,-577,161,17653,23469,480,8520,10639
17849000,3071,-2672,5,72,-204,23659,6807,588,17065,22789,359,8640,10320
17901000,3537,-2622,106,228,435,-3440,-3324,-3378,15188,22731,359,8599,10200
17949000,3447,-2749,-95,-125,1654,-2158,-333,2480,15497,21668,359,8599,9960
18001000,3265,-2693,50,29,2131,-6308,704,222,15163,18199,240,8320,8759
18049000,3370,-2622,128,104,68,6386,704,-1120,13041,17799,240,7679,8559
18101000,3547,-2580,105,-7,768,2663,216,893,12396,14459,240,7679,7400
18149000,3511,-2618,-174,171,-164,-4416,2535,2053,12411,14341,240,7679,7400
18201000,3336,-2450,86,-16,1279,-3012,-28,1442,12069,13768,240,7360,7040
18249000,3374,-2504,54,12,1582,5837,-211,-1242,11210,13582,240,7079,7040
18301000,3484,-2341,0,-29,1920,38,2718,1564,7786,13376,119,6080,6800
18349000,3468,-2434,-33,48,242,-449,-3568,-83,7940,13426,359,6120,6879
18401000,3465,-2387,267,-32,2201,-22,5159,1015,7964,13356,240,6120,6840
18449000,3473,-2380,75,-70,1701,3090,-3262,954,7981,13494,240,6120,6840
18501000,3622,-2564,-30,-4,1330,-388,1131,161,7491,12705,240,6120,6800
18549000,3636,-2419,-60,9,1046,-2463,2962,2419,7402,12958,240,6120,6760
18601000,3559,-2405,-87,-66,1196,282,521,1809,7681,13064,359,6120,6760
18649000,3453,-2408,-28,-40,997,-571,765,2236,7980,13135,359,6120,6800
18701000,3384,-2197,8,190,1492,-9177,-1309,1259,8207,13688,359,6120,6760
18749000,3299,-2256,195,132,979,-83,-4117,4250,8252,13433,240,6040,6719
18801000,3126,-2191,243,290,1657,-4660,-577,-1914,8740,13586,359,6040,6719
18849000,3083,-2198,49,-1,1313,-2280,-150,3823,8193,13575,119,5840,6719
18901000,2860,-2438,160,105,1569,-2341,1070,1442,7739,13205,359,5439,6840
18949000,2684,-2494,31,-60,417,-7041,2169,1503,8577,14693,359,5599,7360
19001000,2451,-2703,-145,-229,914,-2524,-1615,1503,11126,17569,359,6159,8559
19049000,2225,-2885,9,54,704,-5332,-1492,-632,14447,18260,359,7079,8959
19101000,2017,-2824,-29,-82,524,-9360,399,-1303,20827,21166,359,8959,9879
19149000,1829,-2948,86,51,623,-6675,-5033,-2341,22380,21386,480,9320,10039
19201000,1633,-3226,99,5,2201,-8384,-1859,-754,23178,20079,480,9360,9920
19249000,1340,-3111,78,26,2201,-8139,5709,-754,26333,18008,359,10160,9159
19301000,1068,-3183,-126,47,-128,-2829,-5155,588,30275,14209,359,11160,7920
19349000,908,-3233,132,95,1557,771,3878,1564,32739,12077,359,11840,7279
19401000,829,-2966,47,118,489,3334,4244,-22,35552,12099,480,12679,7000
19449000,997,-3252,77,-10,579,11452,-11563,-3134,39750,10189,240,14200,6559
19501000,1323,-3263,156,-15,1491,17494,12117,100,46669,6530,240,16880,5439
19549000,2073,-2955,303,-9,424,29396,277,-2829,45441,6082,240,17080,5000
19601000,3259,-3270,-76,42,310,43617,-6314,-2463,38941,5307,240,16240,5039
19649000,3724,-3210,67,77,857,2663,1802,100,35033,5526,359,15439,5079
19701000,3513,-3348,173,84,768,-5698,-1248,6935,34700,5315,359,15079,5120
19749000,3540,-3098,17,122,413,-3440,10408,9133,30964,5965,359,13840,5160
19801000,3554,-2976,289,-25,1717,-6491,-1004,5104,28455,6909,240,13039,5280
19849000,3725,-3167,-244,193,-231,7424,-5948,588,28014,5675,240,13000,5039
19901000,3922,-3256,166,73,827,-3379,3389,-632,26031,5229,240,12600,5000
19949000,4036,-2849,97,-35,1220,-3318,5465,-815,24361,5406,240,12160,4679
20001000,3968,-3216,9,-67,1339,1015,-7474,1442,24334,4150,240,12080,4600
20049000,3975,-3225,21,-33,1257,2175,10408,-632,24070,4015,240,12000,4640
20101000,3958,-2485,-117,-112,1411,1686,12484,2175,23885,6584,240,11919,4679
20149000,3971,-2521,-113,197,676,3517,521,-266,23786,7628,240,11879,5039
20201000,3961,-2225,100,9,1561,-3135,14376,1442,23755,10242,359,11879,5639
20249000,3930,-1477,-46,-23,1920,-4599,12362,3518,23742,12525,240,11879,5720
20301000,3749,-1641,135,180,634,649,4183,2297,24270,13554,240,11840,6159
20349000,3634,-1301,-72,41,1303,-144,19747,954,24547,15935,240,11840,6719
20401000,3512,-908,-132,45,1649,-3806,1436,2724,23301,23315,240,11280,8680
20449000,3274,-1212,96,68,803,-3196,-9610,1747,23737,28335,480,11199,10599
20501000,3097,-1257,379,149,763,343,-8206,1625,23706,34868,480,10999,12880
20549000,3289,-1781,-37,131,-63,-4111,-20230,832,23099,37400,480,10999,14119
20601000,3259,-2493,-54,-140,231,12367,-16263,9438,24062,36800,599,11280,14760
20649000,3597,-2256,-157,276,1507,3029,-4727,10476,23048,37738,480,11280,14879
20701000,2981,-2427,18,114,905,-16318,-19742,5471,29934,39398,359,12960,15559
20749000,2823,-2635,152,75,1535,5043,-11197,11452,30895,38335,480,13080,15400
20801000,3033,-2796,87,105,2007,32082,7296,-3012,30259,35290,480,13120,14560
20849000,3726,-2702,-90,-105,1814,1869,-22855,-815,28531,33959,480,13199,13920
20901000,3496,-4490,264,145,2013,2846,-35977,2846,28990,24689,480,13160,12720
20949000,3873,-4710,-40,6,976,6081,7479,-327,28051,20992,240,13199,11800
21001000,3960,-4324,-82,-311,489,5165,1009,344,27838,18345,240,13239,10439
21049000,4162,-4549,-183,58,1841,6325,-9488,3701,26204,13363,359,12880,8959
21101000,4283,-5031,283,24,559,10781,-14554,3090,25308,6145,240,12720,7079
21149000,4504,-5189,305,244,1796,12245,-2835,649,24648,4138,480,12679,6600
21201000,4423,-4751,265,101,675,-2158,10775,3334,24288,-7535,359,12520,2239
21249000,4353,-3923,-53,93,1681,8461,29146,2419,20963,-9113,359,11320,1080
21301000,4947,-2586,0,-110,1032,13405,30977,5288,14798,-7759,359,9879,0
21349000,4918,-1981,0,-21,752,2541,16573,1870,7142,-8003,240,7320,-640
21401000,4857,-1858,-61,125,1329,4860,12728,7485,-53,-14454,359,4839,-2960
21449000,4631,-1871,115,115,-7,-13999,-13822,24086,306,-14305,240,4800,-3040
21501000,3458,-2164,-34,83,731,-35117,16695,22988,4024,-14293,240,4800,-2600
21549000,2630,-1155,244,174,1187,-26267,42513,10903,6079,-8890,0,4760,-1599
21601000,2127,164,155,4,1787,-26389,32625,14382,7537,492,119,4640,0
21649000,1772,360,-120,180,1260,-21567,14071,9133,8482,1160,0,4640,0
21701000,1523,-30,12,189,1940,-20530,13643,10170,9589,27,119,4719,39
21749000,960,-36,-73,4,922,-30478,14254,10048,10905,-220,240,4719,-39
21801000,673,-214,177,201,791,-16196,6014,6630,11539,-762,240,4519,-39
21849000,1098,-523,93,-55,1108,-9604,2901,3884,10662,-1433,240,4560,-39
21901000,1271,-1084,21,16,1326,-22544,5159,3579,11545,-732,480,5120,840
21949000,1054,-1416,191,289,1570,-27121,5648,1503,18581,951,359,7279,1679
22001000,1321,-1776,-132,-33,1442,-11191,-4056,1870,27475,6909,359,10480,4080
22049000,1793,-2546,73,208,1120,-12839,-11807,-1547,36831,7177,480,14000,4800
22101000,2285,-2804,163,4,1983,-8872,6319,1625,42103,10666,480,16320,6359
22149000,2976,-2806,3,-140,2069,9133,-3873,2846,45166,11930,359,17880,6719
22201000,4286,-3724,49,179,-337,22438,-23770,1747,41380,8865,359,18080,6680
22249000,5436,-4443,89,50,2172,22804,-18521,710,39905,4882,359,18560,5959
22301000,6333,-4918,192,49,1353,18959,-10587,-205,40758,-2515,359,19920,4080
22349000,6838,-5226,116,128,778,14382,-11929,466,39295,-6310,359,19880,3080
22401000,7100,-5084,271,250,2201,16701,-3324,-1181,38337,-8773,359,19880,2160
22449000,7331,-4723,-83,40,1891,19814,-5765,-937,37888,-8558,240,19920,1919
22501000,7617,-4570,57,43,105,22682,-9244,-1731,34986,-3271,240,19279,3480
22549000,7855,-4480,-26,187,658,21279,-10159,-1914,33439,523,240,18960,4679
22601000,8068,-4283,46,130,2076,20424,-15408,-3073,32675,4190,240,18960,5680
22649000,8149,-4455,81,109,1003,18959,-19803,-3439,35355,6062,119,19920,6440
22701000,8266,-4805,60,60,206,18593,-21024,-2890,34839,4904,119,19880,6440
22749000,8304,-4824,-62,85,424,17006,-12235,-2646,34832,5830,240,19920,6800
22801000,8311,-4453,46,121,466,20851,-10465,-2524,34826,7159,240,19920,6840
22849000,8521,-4675,44,143,1754,21279,-23953,-2463,34238,6602,240,19920,6800
22901000,8265,-4920,245,31,817,7424,-14432,-3256,33883,5758,240,19560,6840
22949000,7847,-4623,-97,148,1501,11757,-7047,-5210,30817,6494,119,18160,6840
23001000,8078,-4776,-110,106,-665,24513,-22244,-4233,22204,5830,240,15480,6719
23049000,8332,-4725,-13,121,1224,14931,-4544,-6125,23481,6694,240,16160,7000
23101000,8202,-4309,-100,244,2201,10964,-12662,-4233,24233,7951,119,16280,6960
23149000,7975,-4710,263,-7,1812,10414,-24869,-4111,27306,7030,240,17119,6960
23201000,7613,-4967,-49,250,2201,9133,-5155,-5087,28640,3456,240,17160,6120
23249000,7090,-4920,24,94,-839,1320,-11746,-2951,27624,-5735,0,16400,2999
23301000,6582,-4804,145,54,1222,2236,-3873,-3195,15052,-14534,240,11600,-39
23349000,6250,-3992,53,118,975,1198,15779,-3562,6521,-13591,0,8480,-360
23401000,5691,-3021,252,133,2201,-13816,8150,-2890,1406,-16985,-119,6159,-2640
23449000,4672,-2335,-84,252,912,-26511,17000,-2463,-4972,-15695,-239,3199,-2760
23501000,3539,-1354,-189,3,-111,-27427,20540,-2158,-6897,-11143,-599,1240,-2359
23549000,2944,-908,-63,137,901,-18760,10836,-2707,-5317,-8749,-719,1240,-1959
23601000,2478,-698,-198,14,603,-20102,13216,-2463,-3716,-4494,-960,1240,-800
23649000,2066,-387,92,106,2184,-23398,12911,-3073,-1738,-1371,-960,1559,-39
23701000,1633,-467,-24,180,439,-23642,765,-2890,11899,-1402,-1080,5599,0
23749000,1375,-836,165,88,435,-17356,2413,-4294,21861,-1525,-1560,8680,280
23801000,1612,-974,-190,265,-207,-4538,2596,-3195,43762,-2924,-2999,16199,0
23849000,2504,-1303,-28,-22,2201,12184,460,-2341,42182,-3684,-5159,16400,0
23901000,3671,-1369,-57,-76,33,21645,10347,-1303,38065,-4109,-9119,16359,0
23949000,4772,-1330,162,126,966,27382,9493,283,33727,-3962,-12600,15840,0
24001000,5843,-1453,177,-74,551,22560,4366,3395,28189,-4480,-19320,15240,-39
24049000,6583,-1573,42,184,752,17800,7906,5349,24085,-4717,-25079,14519,0
24101000,6892,-1469,-13,96,540,8888,13582,10231,18201,-4408,-27959,12960,0
24149000,6811,-1402,164,8,455,2663,13033,13161,16685,-4225,-28080,12400,0
24201000,6446,-1347,104,-49,1508,-5088,13155,16213,12941,-4041,-27840,10760,0
24249000,5982,-1261,-56,155,242,-11985,13460,17739,14146,-3837,-27840,10760,0
24301000,5637,-1284,87,-11,1316,-14914,4976,18898,14888,-3974,-26520,10599,-39
24349000,5320,-1475,74,68,832,-9238,5770,19570,11975,-4201,-25199,9360,39
24401000,5214,-1640,-113,67,713,-3867,5587,20546,-4843,-2282,-19320,3599,880
24449000,5391,-1724,260,91,1628,-5881,2291,17861,-12031,1351,-18840,1359,2160
24501000,4926,-2035,-141,143,37,-20774,-6375,19265,-14778,7332,-17520,0,4479
24549000,3856,-2458,171,2,2056,-32981,-6558,17800,-12146,12382,-15000,0,6519
24601000,3175,-2766,14,160,965,-13999,-12479,15114,-9525,18340,-13800,0,8880
24649000,3120,-3455,99,225,1216,-15830,-19071,15053,-9578,16776,-13200,-39,8920
24701000,2726,-3976,-48,70,539,-21811,-10159,13710,-8300,14109,-12839,-39,8680
24749000,2668,-4235,-88,-102,915,-9238,-14859,15908,-7782,9409,-12479,39,7320
24801000,2872,-4274,-55,-6,1771,-13266,-4178,16091,-8618,6377,-11759,0,6400
24849000,2772,-3820,101,17,1891,-13938,2291,16701,-8100,7466,-11520,79,6400
24901000,2571,-3620,420,258,1073,-10154,-4788,17067,-3753,4499,-10320,1319,5120
24949000,2573,-3525,-35,64,939,-9421,3145,14565,-1642,2096,-9480,2040,4279
25001000,2756,-3415,-6,193,1042,-3073,-3690,14504,1811,-3887,-7919,3359,2119
25049000,3057,-3586,158,-39,1037,1503,-333,12917,12352,-9084,-6600,7119,559
25101000,3606,-3105,54,129,880,10353,13460,11513,17379,-9317,-5280,9400,0
25149000,4447,-2692,-109,35,1938,19020,3389,10537,26636,-8169,-4440,13199,0
25201000,5388,-2598,-150,115,882,19081,7479,7912,37595,-7914,-3720,17920,-39
25249000,6221,-2206,-39,-137,729,38613,7174,7790,38647,-6906,-3840,18920,-39
25301000,7705,-2358,83,20,808,49599,-3324,8217,36643,-7194,-2999,19920,-39
25349000,8730,-2325,39,-13,1114,40077,10958,6874,34029,-7409,-3240,19960,-80
25401000,9357,-2231,144,-98,1027,38735,-1737,6813,28328,-6813,-1919,18800,-39
25449000,10120,-2483,-72,1,1683,49965,765,6691,12913,-7492,-1679,14280,-39
25501000,10315,-2244,362,25,1056,20241,5098,6142,-16307,-9133,-1440,4879,-800
25549000,9308,-2562,-51,63,1283,-4782,-7291,5898,-21755,-13062,-480,2279,-1879
25601000,7567,-3016,41,20,1763,-16989,-1065,4128,-22581,-18050,119,39,-2999
25649000,6019,-2879,-221,79,420,-22422,9737,2907,-18664,-17666,240,39,-2960
25701000,4651,-2441,-119,62,1725,-20530,13582,1931,-13954,-14525,240,0,-2400
25749000,3821,-2299,260,162,405,-16318,9188,1992,-11778,-12022,240,0,-1720
25801000,3342,-2370,191,129,838,-11924,8333,2236,-10147,-11672,240,-39,-1519
25849000,3186,-2430,-199,34,1676,-9848,8089,1564,-9600,-11489,119,0,-1399
25901000,3035,-2249,192,169,921,-12900,12911,1259,-9105,-9748,119,0,-1000
25949000,2914,-2032,159,12,1483,-14182,12850,2114,-8806,-8902,359,0,-920
26001000,2927,-1969,-11,135,684,-6919,8883,-510,-8783,-8788,359,0,-959
26049000,3133,-2150,206,32,1108,-3257,1741,-876,-9414,-8935,240,-39,-880
26101000,3393,-2441,167,-49,2201,-3745,2047,-2341,-10299,-9724,480,-39,-800
26149000,3481,-2406,-145,122,-821,-10031,5831,-2524,-10420,-9338,480,0,-679
26201000,3304,-2250,-79,73,262,-11802,6441,-3928,-9914,-7230,480,0,-160
26249000,3349,-2177,-8,254,-550,-12778,2169,-2951,-10074,-6915,359,-39,-119
26301000,3653,-1993,173,-125,2201,-14426,5037,-1608,-10959,-6221,480,0,-80
26349000,3797,-1768,63,243,-764,-7346,5159,-449,-11288,-5453,0,-39,0
26401000,4290,-1542,123,-84,1501,-5271,-1431,1381,-12992,-4627,-480,-39,0
26449000,4346,-1316,-56,-79,1895,-12717,4854,1442,-13084,-4087,-719,0,0
26501000,4358,-1103,4,226,1231,-3501,-2835,2358,-13076,-3311,-480,0,0
26549000,4322,-1042,149,332,1718,-11435,1741,1015,-13125,-3305,240,0,-39
26601000,3935,-909,117,-15,1378,-10398,1619,710,-11925,-2728,240,-39,0
26649000,3808,-1396,47,-127,254,-144,-12967,954,-11429,-250,359,0,1199
26701000,3634,-1672,118,82,-429,-9299,4122,-327,-4903,13103,480,2000,6040
26749000,3145,-1740,-35,212,824,-11130,460,-1608,1801,18737,480,3840,7960
26801000,2892,-2221,81,-99,1796,-4294,-16080,-2097,11242,32334,480,6640,13000
26849000,3216,-3207,-63,175,-33,3578,-31644,-2890,11039,31090,480,6800,13400
26901000,3878,-4368,-6,130,549,10842,-40494,-2707,3844,22415,359,5160,11840
26949000,4664,-5347,-14,150,1362,14260,-41776,-2463,1629,18865,480,5079,11480
27001000,5350,-6131,77,88,548,8461,-38663,-1792,-7051,8484,480,2999,8959
27049000,5522,-6546,163,88,1285,-2463,-30301,-2219,-15502,1726,480,360,7079
27101000,5230,-6521,68,190,-86,-21140,-19376,-3195,-15570,-5165,480,39,4800
27149000,4694,-6044,-74,100,405,-28891,-7047,-2280,-14344,-8423,480,0,3359
27201000,4059,-5243,20,1,641,-31150,1375,-2341,-12179,-11651,359,0,1359
27249000,3525,-4565,-63,205,604,-29319,4061,-2585,-10664,-14023,359,39,0
27301000,3281,-3791,-133,139,203,-25290,7784,-1242,-9845,-11374,480,0,0
27349000,3260,-3156,-110,-35,748,-22666,8821,-2280,-9904,-9811,480,-39,0
27401000,3359,-2511,25,96,373,-18637,6929,-876,-10077,-7653,359,0,-39
27449000,3541,-2329,-59,-2,786,-15036,-943,-571,-5996,-6996,480,1519,0
27501000,3581,-2500,159,5,1066,-20896,-11258,3762,14456,-7502,480,8400,0
27549000,3519,-2882,57,105,758,-9238,-10465,3579,25848,-8066,480,12119,120
27601000,4263,-3232,67,-29,1401,17861,-13822,3518,41088,-7898,599,17960,599
27649000,5481,-3205,68,76,979,33425,-4422,3090,43804,-8950,1439,19880,239
27701000,6955,-3112,-151,-44,272,52406,-11441,832,38772,-9457,2279,19880,-39
27749000,8891,-2993,26,-142,302,66994,-2469,-205,34022,-9514,2400,19920,-119
27801000,10072,-2138,133,282,-13,40871,15902,-1059,29541,-7615,2519,19920,-399
27849000,10321,-1581,-106,85,1175,36232,-2774,-1242,28836,-6266,2519,19920,-479
27901000,10790,-1290,178,147,947,43923,15474,-1242,27387,-5550,2400,19920,-559
27949000,10888,-245,36,104,1681,39223,16695,283,27001,-2324,2160,19880,-399
28001000,10854,-525,50,138,1537,40322,-13394,-388,18915,-1576,1320,17160,0
28049000,10714,-666,22,239,937,32143,15718,1320,9416,-2221,839,13880,0
28101000,10247,-232,-252,120,1417,24330,1680,3640,-8542,-816,599,7400,-39
28149000,9593,-872,232,346,2092,3517,-10709,3579,-25193,-2285,359,1359,0
28201000,8004,-621,-42,32,1443,-17722,23592,2724,-24134,-1985,599,-39,-39
28249000,6455,94,-45,-61,1080,-15097,15291,4250,-20082,104,599,-39,0
28301000,5506,-284,285,52,1023,-7956,-1981,2602,-16519,-974,480,0,-39
28349000,4803,-589,-137,198,1100,-13938,13094,2175,-14786,-1898,599,0,-39
28401000,4096,-537,5,74,826,-14121,8638,1015,-12288,-1732,599,0,-39
28449000,3656,-889,-88,-2,237,-8811,2596,1198,-11231,-2663,480,-39,-39
28501000,3424,-869,48,92,1187,-11191,14009,1137,-10274,-2849,720,0,-80
28549000,3321,-693,-51,-159,791,-5759,7662,-266,-10000,-2229,1199,0,-39
28601000,3170,-756,15,200,175,-6125,5648,-1975,-9512,-2390,1199,0,-39
28649000,2953,-855,-111,92,640,-10642,10286,-2097,-8991,-2683,959,0,-39
28701000,2654,-786,-92,136,1694,-13694,14559,-3134,-7964,-2479,1439,0,-39
28749000,2512,-739,95,104,1246,-12351,14315,-5820,-7559,-2363,1320,0,-39
28801000,2700,-664,-45,3,287,-6247,13521,-5942,-8101,-2114,599,0,-39
28849000,3004,-619,-227,12,420,-4843,12178,-4782,-8871,-2470,480,0,-199
28901000,3329,-681,97,131,420,-8994,9554,-5210,-9988,-2044,480,0,0
28949000,3453,-876,29,143,435,-16806,7601,-4416,-10375,616,480,0,1040
29001000,3303,-1090,-8,144,462,-26572,6197,-3623,-9909,14969,599,0,6080
29049000,2953,-1268,-50,162,342,-31638,3328,-2524,-9220,17837,599,-39,7160
29101000,2608,-1689,45,30,786,-24985,-2530,-1242,-12144,21451,480,-1440,8840
29149000,2460,-2312,45,59,884,-22727,-10892,-1120,-22451,23197,599,-5000,9920
29201000,2349,-3260,46,12,714,-23093,-21573,-83,-30449,23218,480,-7799,10999
29249000,2254,-4231,49,22,542,-30539,-29691,3640,-38280,23695,480,-10480,11960
29301000,1603,-5512,-96,113,1121,-44150,-32804,5349,-42369,21263,480,-12519,12600
29349000,517,-5999,-177,26,268,-44822,-11258,5288,-32304,15269,480,-10080,11080
29401000,-275,-5951,56,-98,2030,-37497,-18277,5043,-16334,7464,480,-5720,8440
29449000,-665,-6384,127,138,1271,-32676,-8817,4494,-6546,1835,359,-2799,7000
29501000,-673,-5315,-146,-7,1267,-16989,20235,2602,2140,-3105,480,39,4279
29549000,89,-4782,180,-92,1119,-3806,-8023,2846,131,-7384,359,0,2320
29601000,692,-4728,-155,-111,2096,-11435,14132,3945,20363,-14665,1439,7479,-160
29649000,1391,-3444,-134,-131,899,20302,30306,1503,35391,-16841,2160,12960,-1959
29701000,3928,-2967,-145,-136,1862,63515,8211,-205,44974,-25101,2760,18920,-5399
29749000,6266,-2057,203,69,813,59120,42147,1320,42071,-26126,3000,19960,-6399
29801000,8215,-286,-99,42,1649,70229,45198,1931,35232,-20058,3359,19960,-6399
29849000,10113,254,15,34,1845,79933,20723,-3134,30301,-13533,3240,19880,-4759
29901000,11712,78,-135,28,1593,74135,14864,-3256,24622,-5763,3359,19920,-2000
29949000,12816,-46,39,73,886,67604,8516,-4111,21738,-1970,3359,19920,-640
30001000,13272,-531,-10,89,1882,52223,-1615,-4355,19942,-1594,3240,19920,0
30049000,12926,-828,20,128,60,40199,3450,-3928,20745,-446,3480,19920,639
30101000,12358,-1304,-84,-81,937,38857,-6375,-6186,10324,2685,3359,15799,2200
30149000,11816,-1793,-6,-40,1359,30434,-8145,-6003,6953,5897,3119,14240,3680
30201000,10900,-2332,-96,198,-12,20607,-10465,-5026,-2100,12443,2760,10200,6480
30249000,9900,-3054,-98,149,265,10964,-18887,-2768,-7290,17298,2279,7639,8680
30301000,8595,-3957,68,165,324,3212,-21573,-2585,-8386,26166,480,5799,12679
30349000,7493,-4653,12,205,899,-1792,-22916,-22,-10056,30593,480,4319,14760
30401000,6468,-5398,-30,168,1175,-2768,-35123,-1547,-11725,33724,480,2560,16640
30449000,5705,-6451,-145,211,1406,-3806,-41959,-1181,-13616,31149,480,1280,16680
30501000,4838,-7340,275,-8,1682,-9787,-36283,-998,-14396,30178,480,39,17400
30549000,4020,-7908,-62,-73,1993,-12168,-40799,-1364,-12445,29020,480,0,17480
30601000,3322,-8634,118,-11,1459,-6003,-41226,-1975,-9966,21017,599,0,15639
30649000,2919,-8827,-21,-115,1132,-9482,-28958,-1914,-9000,8795,480,0,11760
30701000,2398,-8670,71,211,623,-10398,-21207,-2036,-7316,-8491,599,-39,5840
30749000,2098,-7808,-81,122,1964,-9238,5892,-2280,-6444,-18927,240,0,1719
30801000,1979,-6214,-210,228,1311,-5942,11995,-1914,-5938,-18642,240,0,0
30849000,1977,-5139,196,173,1226,-8994,9493,-2036,-5964,-15883,359,0,0
30901000,1767,-3901,88,63,1249,-13938,18343,-3256,-5423,-11703,240,-39,0
30949000,1580,-2867,-28,99,1,-14182,9066,-3745,-5040,-8851,119,-80,39
31001000,1455,-2476,317,18,2201,-15158,1497,-4721,-16007,-2989,240,-3880,1480
31049000,1243,-2259,-95,7,1993,-18210,4000,-5454,-20788,1973,240,-5640,2960
31101000,842,-2165,-148,143,441,-24924,-2591,-5820,-43808,6944,119,-13760,4479
31149000,345,-2416,37,160,496,-32981,-13761,-5087,-46470,7111,240,-15040,4719
31201000,-608,-2894,155,10,2058,-47934,-12723,-4477,-52175,7996,359,-18000,5560
31249000,-1788,-3159,196,159,1699,-60996,-8328,-5820,-50464,8033,240,-18400,5799
31301000,-3379,-3453,179,223,840,-68747,-10404,-5454,-38702,5358,240,-16280,5239
31349000,-4639,-3616,30,-24,1353,-67771,-7596,-4721,-35367,4583,359,-16240,5120
31401000,-5376,-3705,-69,46,-134,-56968,-7413,-4660,-28150,1483,359,-14760,4200
31449000,-5407,-3707,239,127,2091,-44883,-2835,-6125,-25819,-1341,359,-14040,3280
31501000,-4957,-3461,-41,68,198,-35239,2230,-6491,-30248,-1863,240,-15040,2839
31549000,-4414,-3196,-136,31,794,-32004,154,-4599,-31273,-5122,240,-14920,1519
31601000,-3937,-3009,-155,40,1151,-32737,1375,-5087,-35587,-5307,240,-15800,1240
31649000,-3688,-2736,-80,177,-110,-36643,7051,-5148,-32056,-5943,240,-14400,799
31701000,-3560,-2397,20,102,326,-37802,7051,-5210,9000,-7431,240,-559,-80
31749000,-3276,-2191,141,-93,1762,-22422,7174,-5759,10109,-6775,240,0,-39
31801000,-1962,-1985,-39,39,165,9926,8516,-5271,6006,-5837,240,39,39
31849000,17,-1843,-95,151,182,27931,6563,-3928,2467,-2845,359,480,920
31901000,2155,-1677,41,2,1086,24880,4976,-3317,1213,-113,480,2560,1640
31949000,3437,-1466,-12,81,2201,19570,4305,-2097,-794,789,480,2999,1760
32001000,4213,-1344,190,50,1636,14870,1314,-1731,678,5447,480,4440,3159
32049000,4711,-1375,-34,-94,463,16274,-2469,-1303,-201,5912,480,4560,3320
32101000,5247,-1564,69,115,1835,20851,-3568,-2036,5737,9946,359,7160,4879
32149000,5681,-1845,-55,-7,1375,23964,-6986,-876,4405,13148,240,7079,6159
32201000,6143,-2299,3,91,1334,27321,-10159,-571,7489,19380,359,8640,8759
32249000,6382,-3066,43,-24,1681,25368,-13089,1137,8175,20147,240,9080,9639
32301000,6572,-3860,297,109,1577,27870,-12662,1320,3323,14098,359,7679,8559
32349000,6804,-4182,59,168,1137,29396,-1554,3212,-1945,5966,599,6120,6159
32401000,6801,-4222,142,36,1458,21706,4854,2724,-7203,533,480,4400,4400
32449000,6420,-4025,421,34,1766,15724,11507,2785,-4089,-1296,359,5120,3640
32501000,6186,-3716,124,101,1491,25429,15963,1931,2079,-1549,599,6879,3199
32549000,6496,-3480,-149,-65,942,34950,8638,466,1205,-875,359,6840,3199
32601000,6690,-3088,239,207,470,30312,13643,1747,-5551,335,480,4839,3199
32649000,6569,-2599,-56,33,807,19753,14742,771,-6786,1939,480,4360,3320
32701000,6219,-2286,149,-21,520,17128,7540,1137,3061,9700,480,7240,5520
32749000,5938,-2524,-52,25,1042,18166,216,-632,5187,12987,480,7720,6800
32801000,6052,-2906,356,38,627,28298,-1187,-1181,9323,17799,599,9159,8840
32849000,6307,-3374,-254,44,1044,35378,-9061,405,10658,15709,480,9800,8520
32901000,6652,-3782,-196,45,381,34950,-5277,710,1042,-6787,359,7000,1519
32949000,6733,-3532,64,45,606,28053,13826,405,-7477,-11002,480,4240,-39
33001000,6354,-2434,127,33,1001,16579,32259,405,-18943,-7422,480,39,-39
33049000,5688,-1382,-222,99,-651,5470,33175,344,-17451,-4758,480,0,-39
33101000,4774,-703,26,-4,10,-2219,26949,-1242,-14442,48,480,-39,720
33149000,3927,-556,-81,131,329,-6003,20418,-1120,-12161,3454,480,0,1719
33201000,3213,-721,51,84,310,-3684,8760,-1120,-9641,5275,480,0,2479
33249000,2807,-1163,-206,65,124,-876,5709,-1608,-8680,4167,359,-39,2479
33301000,2686,-1494,214,160,-183,1320,9005,-1608,-8180,2957,359,-39,2479
33349000,2707,-1730,-147,33,1180,2297,7479,-754,-8097,2350,359,0,2479
33401000,2764,-1940,139,163,760,-632,8577,-1486,-8292,5578,480,0,3800
33449000,2709,-2110,125,0,107,-1426,5648,-1792,-8164,9711,359,0,5320
33501000,2662,-2389,0,156,2201,-1426,32,-2097,-7987,18271,359,0,8480
33549000,2505,-3031,185,75,948,-6247,-11624,-1547,-7630,19417,119,0,9360
33601000,2180,-3686,-89,38,1871,-9970,-11746,-3378,-6541,21939,240,0,10999
33649000,1965,-3904,21,159,1550,-3989,-13883,-4782,-5938,25399,240,0,12320
33701000,2089,-4647,70,244,1409,405,-25540,-6186,-6269,26736,240,0,13559
33749000,2292,-5340,115,203,1465,99,-20780,-6247,-7752,38810,359,-319,18199
33801000,2378,-6045,-1,83,2046,-3379,-35733,-5637,-13255,41503,359,-2040,19880
33849000,2149,-7198,-30,196,-517,-11740,-44339,-7834,-15722,38888,240,-3040,19960
33901000,1763,-8122,119,95,734,-18027,-29019,-8505,-13209,28551,240,-2640,17640
33949000,1387,-8637,201,223,542,-19065,-35184,-9482,-5872,22671,480,-520,16080
34001000,1139,-8969,-63,-20,1381,-16928,-19559,-10764,-5578,17852,359,-720,14920
34049000,1123,-8359,170,-39,1287,-11008,-16995,-11496,-6404,13470,359,-1039,12960
34101000,1401,-8073,64,38,962,-7651,-22977,-11801,-13084,14539,359,-2960,12920
34149000,1643,-7457,31,-13,909,-8933,-9305,-11618,-21997,13749,240,-5720,12160
34201000,1581,-7182,-89,-59,755,-16806,-23221,-12290,-32704,14813,240,-9320,12119
34249000,1249,-7328,-12,27,420,-29502,-21085,-10581,-40586,14866,240,-12200,12279
34301000,357,-6939,123,-18,1063,-42929,-13333,-10092,-40431,20580,359,-13120,13800
34349000,-640,-6778,67,-57,989,-48911,-27066,-9970,-36029,24115,359,-12480,14800
34401000,-1842,-7185,255,0,558,-50803,-23160,-10703,5287,11202,359,-80,10920
34449000,-2366,-7043,-31,47,1844,-26877,-6986,-11740,7220,4175,240,39,8520
34501000,-1559,-6554,189,34,1211,466,-7108,-9909,4677,-6104,359,0,4519
34549000,-76,-5910,186,116,144,14565,12911,-8994,868,-10171,240,-39,2679
34601000,1165,-4283,178,251,1626,771,24446,-3256,-3616,-9131,359,-39,1240
34649000,1422,-3224,246,191,603,-11740,14254,-3501,-4174,-6335,359,39,1240
34701000,1262,-2529,254,133,-52,-15586,23531,-2646,-667,-4947,359,1040,880
34749000,1322,-1752,67,85,914,-5515,26522,-2341,-753,-3338,359,1040,759
34801000,1746,-1324,424,113,1210,-937,16024,-3012,-439,-2294,240,1600,559
34849000,1882,-1495,43,158,1004,-8078,20845,-1547,1057,-2759,240,2239,559
34901000,1806,-1119,112,111,476,-6125,25362,-1914,1541,-3117,119,2320,79
34949000,2012,-1027,122,-12,861,2541,19258,-3378,3071,-3038,240,2999,0
35001000,2358,-992,-240,-1,1041,3029,24385,-4172,14405,-3098,240,7160,-39
35049000,2559,-940,-66,26,1249,3334,23775,-4782,20014,-2960,1320,9200,-39
35101000,3011,-832,385,137,2094,16701,27742,-5393,27684,-2737,359,12240,-80
35149000,4005,-834,275,76,1050,30312,24446,-5942,32605,-2560,480,14679,-39
35201000,5205,-1393,57,141,1372,33302,17427,-5515,30824,-4300,359,15480,-39
35249000,6171,-1868,-6,36,-586,32692,25240,-5515,30149,-5562,240,16080,-39
35301000,7036,-1964,131,-51,229,33119,30245,-3745,27729,-6132,359,16280,-80
35349000,7754,-2230,361,52,1759,33669,27498,-3562,22740,-6392,359,15240,39
35401000,8167,-2370,158,-46,1415,24513,28292,-3501,13418,-7110,480,12639,0
35449000,8060,-2364,21,13,2006,16030,28536,-1975,8688,-7127,359,10999,0
35501000,7588,-2224,230,-45,166,8400,30367,-1731,9274,-5114,359,10680,520
35549000,6973,-2048,-27,-16,699,4006,29085,-754,11029,-3364,480,10760,959
35601000,6375,-1978,86,225,681,7912,22066,-1792,28754,-775,359,15959,1719
35649000,6256,-2105,163,101,724,18349,21273,-1303,30388,-851,480,16359,1800
35701000,6832,-2364,93,-87,1382,38979,19136,-876,21383,-2053,480,13959,1679
35749000,7879,-2495,-124,-101,734,50087,20784,-1792,11133,-2576,240,11400,1640
35801000,8798,-2391,70,269,1646,38185,17855,-388,-11275,-4414,359,5039,920
35849000,8695,-2625,143,97,-19,6813,12667,1381,-26541,-7737,359,-39,0
35901000,6942,-2758,354,-26,1353,-35727,20113,2663,-20827,-8276,240,0,0
35949000,4861,-2711,104,2,1700,-28891,14620,161,-15808,-8146,-119,-119,0
36001000,3682,-2938,-206,-33,1077,-12046,10408,1564,-22327,-8814,-719,-3760,0
36049000,2779,-2811,-75,102,1131,-25107,18587,1503,-27018,-4021,-1199,-6040,1519
36101000,1195,-2806,203,278,1270,-43052,-2286,1870,-31547,13059,-1919,-9320,7160
36149000,-137,-3639,329,-9,991,-41159,-18765,1747,-28379,23161,-2160,-9400,11199
36201000,-1082,-4493,348,120,1376,-38596,-19376,1259,-24593,37279,-2279,-9280,16919
36249000,-1570,-5710,-39,48,600,-34446,-50382,2236,-20321,40979,-2279,-8280,19080
36301000,-1893,-7796,296,101,1795,-38657,-53494,3518,3280,31930,-1679,-800,18440
36349000,-2186,-8707,355,-24,1748,-26694,-34512,344,6686,27893,-1199,39,17920
36401000,-1725,-9288,-143,-95,560,-5576,-41654,527,14295,20255,359,3039,16040
36449000,-676,-9642,48,79,-33,4555,-34879,-144,13980,14943,359,3800,14600
36501000,464,-9299,93,175,714,5959,-17789,-876,10007,10262,480,3800,12720
36549000,1269,-8671,2,-50,1513,99,-17301,-815,8038,11124,359,3840,12480
36601000,1753,-8233,60,100,675,-3867,-22550,-754,8178,12498,359,4479,12400
36649000,2106,-8069,-102,25,371,-2463,-22061,-632,7184,11229,480,4440,11840
36701000,2435,-7851,-133,-39,194,3090,-17301,-327,-345,2606,240,2320,8719
36749000,2717,-7530,210,214,1176,2785,-10709,-22,-4464,-4318,240,1199,6159
36801000,2669,-6962,-167,32,-899,-6736,-2652,283,-7889,-6966,359,39,4640
36849000,2349,-6126,-60,155,-606,-14243,3572,222,-7194,-4774,240,0,4679
36901000,1943,-5409,-46,157,617,-13449,-1370,-937,-5830,11612,-960,0,9280
36949000,1970,-5372,-35,-137,-225,-6736,-21390,-754,-5823,19820,-3359,0,11919
37001000,2257,-6360,-2,40,1650,893,-40311,2236,-6772,20399,-3479,0,13160
37049000,2432,-7278,131,157,915,-1181,-27371,1015,-7310,17501,-1679,-39,13000
37101000,2541,-7864,36,-78,804,-1303,-34451,-1914,-7624,11325,-840,0,11640
37149000,2615,-8441,112,19,1373,-2463,-28348,-3501,-5227,6723,240,880,10639
37201000,2357,-7988,43,110,2147,-6125,-8878,-6003,8167,-4525,480,5079,6480
37249000,2641,-7509,126,62,1277,17800,-21207,-6430,24144,-12427,599,10559,3399
37301000,3634,-7045,327,210,1287,33669,9432,-6980,40696,-21377,480,17200,-80
37349000,4866,-5615,4,20,1486,46059,12178,-5576,41391,-17690,480,18440,-80
37401000,6745,-5183,-286,58,1343,62477,-9854,-6796,33524,-15791,480,17920,-80
37449000,8198,-4365,72,206,2155,50209,25972,-5332,21778,-13894,720,15280,-39
37501000,8575,-3268,-131,229,1225,36110,399,-3439,6794,-9804,720,10840,0
37549000,8606,-3510,159,-39,409,24269,-5399,-3073,-7457,-10437,599,6159,0
37601000,7832,-3000,180,-55,1775,2968,18831,-2768,-23376,-9000,480,39,0
37649000,6587,-2578,21,-95,249,-7041,6136,-1853,-20432,-7897,480,0,-39
37701000,5136,-2901,-26,209,232,-16501,-4300,-2280,-15409,-8823,119,0,-39
37749000,3890,-3251,226,15,729,-22300,1009,-2585,-12288,-9636,-840,0,0
37801000,2743,-3226,25,130,1453,-22971,15108,-1547,-8229,-9678,-2279,0,0
37849000,1912,-2812,90,-90,1839,-22177,18526,405,-6127,-8638,-4079,0,0
37901000,1191,-2617,-141,9,487,-22239,10469,1870,-3693,-7852,-6600,-39,0
37949000,735,-2687,101,89,67,-20652,12178,1809,-5392,-5513,-6719,-1000,840
38001000,717,-2720,-181,140,671,-19980,7845,4372,-6232,-3121,-6239,-1360,1679
38049000,606,-2978,12,16,-238,-23642,-455,6020,-5465,-3251,-4920,-1200,1840
38101000,564,-3170,-167,240,1247,-18943,8821,5471,-1934,-4591,-2999,-80,1640
38149000,806,-3030,100,233,1516,-8078,4549,4311,-2253,-4694,-1919,0,1480
38201000,1234,-3039,128,222,379,-10459,5892,3090,-3703,-6239,-1199,0,959
38249000,1306,-2896,15,-40,1469,-13938,10225,3884,-3938,-6198,-719,0,880
38301000,1521,-2881,-73,121,711,-8078,399,3029,-4565,-5645,119,0,999
38349000,1714,-3028,-17,-79,1436,-9909,5159,3151,-5251,-5921,240,-39,1040
38401000,1601,-2725,-194,-58,784,-10337,10286,3701,-4805,-5297,359,0,959
38449000,1670,-2585,274,179,2201,-4050,948,3640,-4911,-4878,359,0,959
38501000,1786,-2450,205,89,1955,-6858,11446,2785,-5238,-5071,240,39,759
38549000,1950,-2168,81,-9,2201,-3135,7296,954,1988,-6709,359,2560,-39
38601000,2065,-2126,-230,-84,547,-3623,9249,-1914,15282,-6619,599,7160,-80
38649000,2182,-1844,-221,-60,1058,-1364,18221,-3439,15663,-6112,480,7360,-119
38701000,2555,-1339,-26,-70,123,4799,24630,-4416,20654,-8337,599,9440,-1440
38749000,3225,-944,21,18,691,14687,26705,-3745,22535,-8180,480,10599,-1720
38801000,4336,-640,118,146,993,26406,25972,-4294,18669,-9000,480,10559,-2359
38849000,5495,-666,62,184,332,31960,21700,-4172,12798,-8445,599,9560,-2159
38901000,6592,-972,-86,165,-106,28420,7174,771,-6336,-3038,480,4479,-39
38949000,7193,-1595,-30,-93,378,8766,1314,2968,-7787,-4448,480,4560,0
39001000,6680,-1986,30,-15,1183,-4172,9188,2785,-5042,-2238,480,5000,1240
39049000,6232,-2074,104,-92,199,8339,-394,3518,-4671,-696,480,4719,1800
39101000,6024,-2401,-6,-38,347,4555,3633,2663,-9552,1554,359,2839,2920
39149000,5375,-2512,-18,68,1949,-4538,826,4738,-9183,2114,480,2439,3199
39201000,4862,-3078,213,123,2201,4555,-12113,4067,-10746,1324,480,1280,3520
39249000,4438,-3305,246,85,763,-205,4610,3579,-12097,611,480,480,3520
39301000,3887,-3545,57,96,927,466,-12113,4311,-11661,-75,480,0,3520
39349000,3578,-4172,221,68,405,-4477,-7413,3945,-10839,-2158,359,39,3399
39401000,3047,-4079,-191,-188,318,-7834,-394,5104,-9142,-2039,359,0,3399
39449000,2695,-4271,276,-158,834,-4050,-13883,4433,-8130,-2957,480,39,3199
39501000,2491,-4648,-161,22,1121,-4416,-1431,4494,-7353,-4465,480,39,3159
39549000,2404,-4489,141,-23,314,5226,-6131,5593,-7060,-4112,480,39,3120
39601000,2641,-4566,336,143,1056,6386,-10587,4006,-5763,-1580,480,720,4040
39649000,2770,-4521,78,49,1103,4677,-7474,4616,-949,209,480,2439,4600
39701000,2881,-4329,33,16,1231,7057,-4178,4494,-604,811,599,2679,4600
39749000,3059,-4183,-68,-48,118,9987,-7352,5227,4604,93,480,4560,4240
39801000,3372,-4055,97,161,822,13405,-9183,5104,15202,-3407,480,8440,2920
39849000,3803,-4198,-61,47,1160,17311,-8634,5593,23130,-7533,959,11440,1679
39901000,4514,-4095,372,26,1873,28847,-2774,6935,24615,-9407,480,12720,959
39949000,5396,-3991,138,139,107,35561,-760,9194,22401,-10790,480,12720,399
40001000,6042,-3891,352,-45,1469,25368,216,9255,20151,-11554,599,12760,39
40049000,6078,-3743,-2,87,816,19570,5342,9316,16093,-11326,359,11440,0
40101000,6065,-3492,-217,-52,1012,21767,6075,9377,-5237,-10477,359,4319,0
40149000,5768,-3236,221,147,435,-2646,7479,9743,-17675,-9792,480,0,0
40201000,4269,-3047,-345,158,1045,-29258,7845,10476,-12809,-9141,480,0,0
40249000,2807,-2886,208,-31,1051,-24741,4061,8461,-8965,-8609,480,0,0
40301000,1919,-2766,139,60,493,-17905,4366,8461,-5878,-8300,359,-39,0
40349000,1394,-2724,57,198,-6,-18821,7479,9255,-4802,-8353,359,-119,-39
40401000,1157,-2680,-29,181,900,-15586,2596,8156,-12111,-8160,240,-2879,-39
40449000,932,-2601,-210,14,2201,-18576,6441,6569,-11834,-8180,359,-2960,-80
40501000,510,-2322,-87,168,1223,-22300,6502,5593,-4530,-7207,359,-1000,-80
40549000,219,-2247,-177,104,1535,-19797,32,5288,-769,-6918,359,0,-80
40601000,287,-2261,-95,-35,489,-10947,4366,4189,-863,-7263,359,0,-160
40649000,637,-2110,55,-42,537,-4294,4366,3090,-1698,-6744,359,0,-119
40701000,1198,-2306,-155,140,1104,-693,-1615,2419,-3595,-7039,359,0,-39
40749000,1727,-2506,12,72,363,-5820,2352,3273,-4936,-7666,480,0,-39
40801000,1963,-2420,329,148,828,-14731,8699,1320,-5890,-7380,480,0,-39
40849000,1944,-2621,-28,18,1523,-17600,4976,1503,-5975,-7740,480,-39,0
40901000,1833,-2914,-113,117,1475,-16074,2108,405,-5501,-6342,359,0,799
40949000,1750,-3198,272,46,1387,-15342,-577,1015,-5186,-4668,359,39,1600
41001000,1681,-3513,185,110,219,-11618,-3568,1747,-2524,-3701,359,840,2279
41049000,1870,-3787,28,-79,359,-4843,-5155,1381,-3287,-3790,480,720,2479
41101000,2212,-3898,-47,267,1224,-5210,-5826,954,-6636,-4374,480,0,2439
41149000,2211,-3878,-26,108,1111,-12595,-7596,1015,-6680,-4821,480,0,2279
41201000,1961,-3714,49,-71,1468,-12473,-6925,-2219,-6004,-5983,480,-39,1719
41249000,1862,-3450,247,156,1045,-6308,-7657,-3439,-5562,-5151,599,0,1760
41301000,2024,-3387,163,137,2201,-2524,-8695,-4050,-5953,-81,480,39,3359
41349000,2183,-3382,41,82,-43,-3501,-8695,-3623,364,2940,480,2279,4360
41401000,2248,-3570,-39,-6,1349,-4416,-16873,-632,8015,9809,480,4920,6840
41449000,2417,-4159,112,112,1181,5470,-23770,-144,18122,9462,480,8400,7200
41501000,3156,-4887,-21,6,256,21462,-24747,39,33249,1898,480,14240,5520
41549000,4300,-5162,27,171,849,34767,-14798,-815,36106,-3244,359,16119,4080
41601000,5615,-4976,289,98,1212,37880,-9610,-815,42793,-6529,480,19880,2799
41649000,6725,-4739,-71,88,1311,40932,-9244,893,37221,-5915,480,18960,2799
41701000,7786,-4463,109,-15,1106,42092,-7901,-571,20681,-6789,599,14679,2200
41749000,8328,-4055,-302,55,474,33180,-8573,-327,1193,-6988,480,8680,1800
41801000,8096,-3760,-56,143,1387,9133,-7962,-144,-11689,-4682,480,4200,2200
41849000,7081,-3481,88,104,1745,-11008,-6864,-815,-9145,-3979,480,4240,2200
41901000,5677,-3430,114,149,2179,-16196,-11991,-998,-13552,-3690,480,1159,2200
41949000,4578,-3592,211,-121,1993,-12778,-10098,-1608,-14248,-5185,359,0,1840
42001000,3634,-3424,-15,85,1686,-14365,1253,-2585,-10903,-7633,359,0,880
42049000,2826,-3181,45,186,2201,-18821,765,-3806,-8997,-7475,480,-39,720
42101000,2050,-3082,-137,35,735,-18088,-2225,-4050,-6272,-6968,480,-39,759
42149000,1690,-2889,-34,-88,76,-8811,1009,-4416,-5144,-6505,480,0,759
42201000,1792,-2747,22,-29,1566,-937,-3018,-3989,-5497,-6081,480,-39,720
42249000,1949,-2604,-30,-77,183,-266,-5460,-4599,-5642,-5751,359,39,720
42301000,2042,-2530,5,33,904,-2951,-6375,-3745,8873,-5671,359,5000,639
42349000,2116,-2576,208,45,2201,3761,-6192,-3501,26615,-7679,480,10959,0
42401000,2780,-2512,135,-51,608,24880,-943,-3439,48898,-7658,359,19080,-39
42449000,4045,-2472,127,128,-618,43556,-1554,-3623,48215,-7396,480,19880,0
42501000,5810,-2453,-123,85,649,53810,-1859,-3501,42327,-7481,480,19920,-39
42549000,7222,-2239,30,-6,787,49965,2718,-3256,38685,-6960,480,19920,-39
42601000,8133,-1965,121,14,1429,38368,4061,-2036,22639,-6015,720,15680,-39
42649000,8484,-1736,64,5,474,30739,6075,-2646,-2777,-5465,480,7520,-39
42701000,8267,-1415,-202,188,349,11269,4427,-2524,-24802,-4246,359,0,0
42749000,7169,-1264,-132,-1,238,-17539,-28,-1792,-22247,-3834,359,0,0
42801000,5375,-1319,125,122,1085,-36155,887,-2036,-16245,-3838,359,-39,39
42849000,3888,-1475,169,129,-1,-34323,4610,-3562,-12354,-4323,359,0,0
42901000,2866,-1568,34,-66,1603,-25718,5953,-4599,-8599,-4705,359,0,0
42949000,2400,-1583,8,175,1304,-16745,8211,-4416,-7261,-4882,480,39,-39
43001000,2164,-1551,98,177,465,-11191,8638,-3501,-6494,-4653,480,0,0
43049000,2026,-1592,9,-71,457,-10642,4366,-3623,-6124,-4716,480,0,0
43101000,1896,-1676,223,56,2201,-14060,4732,-2402,-5689,-5029,359,0,0
43149000,1606,-1753,84,-7,1946,-16440,4671,-3378,-5015,-5205,359,0,0
43201000,1335,-1704,50,56,1042,-17295,9188,-2463,-4006,-3194,359,0,639
43249000,1335,-1445,106,49,1775,-16074,11019,-693,-4009,-1950,359,0,840
43301000,1337,-1365,69,42,985,-13755,4488,222,-4012,-1695,480,0,799
43349000,1344,-1509,129,127,450,-15281,7357,1442,-4170,-1833,480,-39,880
43401000,1221,-1518,63,91,1520,-17112,10897,2419,-3665,-2275,359,0,759
43449000,1147,-1582,189,39,1875,-15891,6014,1198,-3450,-2492,359,0,720
43501000,1221,-1735,-38,20,1455,-14609,7235,1686,-3663,-3405,359,0,599
43549000,1270,-1787,9,219,466,-16623,10164,1198,-3797,-3961,480,0,480
43601000,1216,-1729,115,184,427,-17844,8455,1870,-3648,-3748,359,0,480
43649000,1144,-1914,124,46,1158,-18454,4061,3334,-3488,-4791,359,0,280
43701000,964,-2090,62,64,2110,-17417,9249,2602,-3014,-5312,359,-39,320
43749000,726,-2009,0,49,562,-17539,11080,3640,-2292,-5733,119,0,120
43801000,654,-1925,193,-11,1870,-12534,10775,3456,-1963,-5655,240,0,39
43849000,665,-1837,176,180,557,-12839,12667,4860,-1828,-5602,240,39,0
43901000,807,-1702,110,-42,2016,-12412,10286,5532,-2421,-4988,359,0,39
43949000,991,-1587,-111,103,-17,-10459,11812,6325,-2969,-4586,359,-39,79
44001000,1220,-1502,97,-21,1478,-11252,8516,7485,-3661,-4388,359,0,39
44049000,1261,-1599,33,200,2201,-11313,4854,6264,-3791,-1394,359,0,1119
44101000,1325,-1830,159,34,1382,-9726,1741,6630,-3976,7347,359,0,4279
44149000,1592,-2037,-107,-25,781,-3318,-211,9072,-4497,9610,480,39,5200
44201000,1962,-2417,-101,-65,894,282,-5765,9438,-5888,8468,480,0,5239
44249000,2355,-2774,162,69,2201,2846,-7413,9560,-6958,4837,480,-39,4319
44301000,2726,-3004,346,43,1507,1808,277,9316,-8298,-5172,480,-39,1280
44349000,2892,-2786,116,20,2017,99,8944,11147,-8663,-8425,359,0,39
44401000,2769,-2379,-11,10,746,-6980,9676,10292,-8308,-7618,359,0,-160
44449000,2769,-2090,-55,82,824,-632,9005,8706,-8253,-9034,480,0,-880
44501000,3089,-1785,74,83,525,5226,11141,7302,-9267,-15676,359,0,-3439
44549000,3514,-1440,169,59,645,3700,11629,6264,-10239,-16809,359,39,-4119
44601000,3664,-1140,-209,-54,14,-5637,9676,4982,16846,-16622,359,9280,-4400
44649000,3634,-986,84,35,1285,588,11263,2297,29435,-12346,480,13440,-3120
44701000,4394,-905,51,-18,-736,28420,5526,1259,27977,-9915,480,13719,-2400
44749000,5917,-1146,-117,102,102,41908,-7840,1686,28947,-7306,359,15280,-1360
44801000,7453,-1232,-137,23,1038,37880,-2652,283,23479,-4058,480,15280,-119
44849000,8516,-1249,-103,149,-152,40932,-7047,-510,21661,-3626,480,15559,0
44901000,9804,-1833,232,2,1204,40138,-8206,-1059,29627,-5501,599,19680,0
44949000,10572,-2182,-39,104,1950,45021,2047,100,28325,-6530,599,19920,0
45001000,10894,-2187,-71,189,-235,39772,-4727,-83,27075,-6441,599,19920,39
45049000,10765,-2403,-324,-84,387,28786,-9854,-22,27301,-5387,480,19920,599
45101000,10127,-2142,-239,166,1652,15358,-9366,-388,29376,-2468,359,19920,1319
45149000,9360,-1959,108,133,-30,10597,-13516,-1425,31369,-897,480,19920,1679
45201000,8757,-2018,-56,-53,712,17677,-17056,-754,31567,4505,599,19279,3520
45249000,8500,-2304,155,71,1061,26650,-20780,710,20307,8732,599,15280,5160
45301000,8399,-2807,201,71,1534,26772,-22611,1870,-4197,9577,359,7000,5999
45349000,7808,-3320,145,-6,1066,10536,-26273,3518,-11241,11582,480,4200,7079
45401000,6427,-4057,118,-141,1557,-24131,-33109,4494,-14361,10266,480,1640,7479
45449000,4401,-4841,-21,172,1214,-33896,-28104,2236,-10685,8381,480,1159,7520
45501000,3074,-4942,75,-113,1358,-15952,-18033,2419,-5983,7613,480,1080,7479
45549000,2695,-5219,46,157,-713,-1120,-25601,2663,-5876,7510,480,759,7639
45601000,2489,-5594,80,16,2201,-10825,-14615,3334,-6149,7216,480,439,7999
45649000,2010,-5525,165,119,2201,-12839,-14005,2907,-5048,9243,480,399,8599
45701000,1639,-5925,111,27,1869,-5759,-23709,3945,-3838,9824,480,360,9200
45749000,1645,-5866,-11,306,951,-5942,-8939,3884,-4895,10503,480,0,9440
45801000,1475,-5664,186,-212,1385,-13999,-22122,4067,-4546,10007,480,-39,9000
45849000,1314,-5928,-96,137,875,-6675,-20230,2907,-3925,4146,359,0,7279
45901000,1529,-5597,34,28,-37,-9177,216,1931,-4468,-3711,359,39,4360
45949000,1437,-5064,150,49,1647,-15891,-2652,3029,-4318,-8172,480,39,2400
46001000,1307,-4619,-66,107,1545,-8750,2962,3090,-3803,-9419,359,39,1480
46049000,1572,-3634,-102,256,825,-4721,19136,1259,-4653,-8219,480,-39,1080
46101000,1828,-2895,44,55,2201,-9421,-577,1564,-5605,-7485,480,-39,399
46149000,2037,-2673,80,-14,1135,-12534,9432,1992,-6004,-7089,359,0,399
46201000,2236,-1630,341,201,341,-10093,22982,1625,-6709,-3572,359,0,439
46249000,2527,-1572,215,-19,1054,-1609,-6497,710,-7438,-4458,480,0,0
46301000,2660,-1772,186,192,2201,-11679,20784,-205,-7741,-5317,480,79,0
46349000,2479,-808,-289,170,1451,-6552,22005,1076,-1839,-3006,480,1879,-39
46401000,2815,-904,197,148,1633,5715,-5704,-1853,6434,-2832,480,4960,-39
46449000,3373,-1257,26,157,343,9316,12972,-1486,16516,-4187,480,8800,-119
46501000,3905,-596,43,114,2191,15297,19503,-632,27524,-2629,480,13080,-279
46549000,4674,-673,132,58,690,31471,-1859,-3378,31359,-2764,480,14960,-319
46601000,5853,-712,292,31,1452,36781,14132,-1792,36799,-2376,359,18120,-80
46649000,6862,-335,172,59,2058,38246,17305,-693,34362,-1219,359,18160,-39
46701000,7772,-766,3,237,1315,39040,-943,-1425,31403,-2419,480,18239,-39
46749000,8346,-1017,-7,137,1147,33547,12423,-571,29576,-3060,599,18120,0
46801000,8680,-675,-97,37,1600,31716,14925,100,7917,-825,480,11320,399
46849000,8817,-710,162,-67,835,24208,1009,-754,-13763,-1162,359,4240,280
46901000,8061,-802,111,314,1872,-8567,10042,771,-24185,-2288,480,0,39
46949000,6400,-641,136,124,755,-28525,10714,1015,-20206,-1978,480,-39,0
47001000,4762,-814,25,-12,1124,-22666,2291,588,-14408,-2443,480,-39,0
47049000,3900,-729,87,-44,720,-16074,13338,1137,-12017,-2348,480,0,0
47101000,3317,-295,-91,158,977,-15464,7723,2236,-9952,-886,480,0,0
47149000,2882,-490,177,72,933,-14426,-516,1992,-8832,-1205,480,0,39
47201000,2596,-489,-41,35,1012,-10581,13765,2236,-7790,-1348,480,0,39
47249000,2543,-366,-11,-24,1630,-7834,4000,2175,-7617,-1002,480,0,0
47301000,2482,-886,149,10,1518,-11008,2169,1198,-7567,-2539,480,-39,39
47349000,2324,-1073,107,0,1439,-13877,9554,1992,-6974,-1090,359,39,680
47401000,2095,-1505,-112,12,463,-12168,-2713,893,-3165,-1635,359,1040,959
47449000,2093,-2040,-17,75,627,-9421,3145,1442,-1469,-2467,480,1600,1159
47501000,2085,-2193,74,41,1504,-9970,13765,-876,5864,-3101,480,4040,1159
47549000,2178,-2207,106,114,665,-9543,12117,-2768,6132,-3355,359,4200,1080
47601000,2401,-2274,-66,47,-325,-7895,8699,-2585,5156,-3702,359,4119,1040
47649000,2593,-2323,11,186,95,-7041,6685,-3073,4208,-4559,359,3959,799
47701000,2961,-2439,-174,154,-122,-9238,3145,-2097,-1805,-5038,359,2360,759
47749000,3172,-2522,167,159,1318,-12778,1863,-2768,-4711,-5111,480,1600,799
47801000,3077,-2600,-63,85,773,-17539,2047,-2463,-7793,-3002,359,480,1600
47849000,2821,-2627,-9,28,314,-21079,-2713,2358,-8564,1260,359,0,3039
47901000,2640,-2853,-29,90,231,-14182,-8939,1015,-8040,8718,480,-39,5759
47949000,2754,-3036,156,205,1047,-12351,-12906,1564,-8257,10856,359,0,6600
48001000,2649,-3481,-64,85,1462,-18271,-17117,1625,-8309,9955,359,-119,6800
48049000,2484,-3904,-185,108,1246,-15830,-18887,1259,-10024,8635,480,-839,6719
48101000,2474,-4091,-49,28,2028,-10398,-11258,-144,-10064,2725,480,-880,5000
48149000,2497,-4207,-143,24,1139,-10459,-11197,-693,-14072,1489,359,-2200,4679
48201000,2329,-4171,-150,-119,311,-15342,-9854,-510,-17547,566,359,-3520,4360
48249000,2013,-4265,6,-137,1254,-19675,-14310,-571,-12876,-6837,359,-2200,1960
48301000,1604,-4056,8,72,1422,-19614,-455,-3073,-4812,-12410,359,0,-80
48349000,1395,-3632,24,83,-1006,-15342,9493,-5332,-4139,-12848,480,39,-559
48401000,1488,-2911,-135,-1,-8,-8445,10530,-5576,-3624,-11013,599,280,-759
48449000,1970,-2179,45,112,1156,-388,11080,-6125,-4753,-8822,599,280,-640
48501000,2640,-1578,112,17,845,1198,5953,-6308,-7800,-4856,480,39,-39
48549000,3197,-1328,74,43,325,1442,2108,-3806,-9207,-4099,359,39,0
48601000,3680,-1190,-266,158,-69,-1120,-89,893,-10921,-1411,359,39,720
48649000,3949,-1228,194,-13,932,-3989,-3446,-22,-4300,-835,359,2479,920
48701000,4120,-1743,166,119,971,4616,-5948,588,357,-1869,480,4240,1119
48749000,4357,-2016,100,135,1937,9072,-4056,1442,-224,-2293,480,4240,1240
48801000,4480,-2180,-70,138,1288,6935,-6070,1259,-360,-782,359,4360,1919
48849000,4459,-2042,-71,110,1725,10170,-882,710,-82,990,359,4400,2400
48901000,4583,-1989,-68,-197,1311,14076,-8389,283,1129,1952,359,4960,2639
48949000,4729,-2182,20,144,858,12978,-5277,-815,3852,1220,480,5999,2560
49001000,4753,-2120,90,-71,854,9560,-1859,-3562,4220,1199,480,6159,2520
49049000,4845,-2054,95,260,624,11574,-1737,-4965,3791,1666,359,6080,2600
49101000,5132,-2098,-9,55,911,16213,-4361,-5454,2603,1623,480,5999,2639
49149000,5404,-2229,65,72,267,14565,-5948,-5393,1539,1099,480,5880,2560
49201000,5680,-2300,80,39,254,14504,-1737,283,-3000,1257,359,4679,2720
49249000,5720,-2217,-62,217,883,12978,-3324,2297,-3003,2172,480,4719,2960
49301000,5667,-2261,59,132,1903,11818,-7047,1992,-3083,1976,480,4640,2920
49349000,5587,-2130,-213,-21,2201,15419,-2530,1381,-2740,2178,599,4679,2880
49401000,5379,-2020,211,140,683,13893,-9793,1259,-1618,-1142,2039,4839,1640
49449000,5159,-2152,188,-204,638,11330,-10159,-876,4188,-2045,5399,6600,1440
49501000,4953,-2074,-1,-21,507,13039,-516,-3684,12740,-3104,10679,9200,1040
49549000,4893,-1772,-91,14,758,13283,7235,-6857,20831,-2519,10559,11840,999
49601000,4994,-1307,18,85,1482,18898,11202,-8872,36615,-1883,6120,17200,680
49649000,5418,-903,53,36,885,30983,12056,-8750,43712,-1608,1320,19880,439
49701000,6311,-746,278,-64,2146,44899,1925,-815,40704,-1880,959,19880,120
49749000,7328,-1112,-24,88,912,51369,154,-1731,38263,-3030,480,19920,39
49801000,8174,-1259,-103,-8,272,45510,6258,-754,31396,-3779,480,18640,0
49849000,8608,-1478,-109,-172,1335,43373,-3201,-1669,28463,-4329,359,18039,-39
49901000,8798,-1863,264,175,1249,34462,3267,-1792,13204,-5590,480,13199,0
49949000,8610,-1935,-125,133,427,26528,1680,-815,-4898,-5719,480,7040,0
50001000,7783,-2287,118,89,-612,3212,-1309,-1486,-16149,-6863,480,2400,0
50049000,6293,-2103,-155,-18,2201,-12107,10591,-876,-19551,-6634,480,39,-39
50101000,5028,-2001,505,361,1530,-6858,-5582,-388,-15084,-6005,480,0,0
50149000,3883,-1955,-124,191,977,-16867,13704,-449,-12408,-6082,480,-39,0
50201000,3010,-1396,157,96,1167,-10459,1680,-632,-9150,-4189,720,-39,0
50249000,2770,-1827,-107,219,1703,-7163,-10220,-1853,-8370,-5293,599,0,0
50301000,2417,-1775,34,-46,2128,-13572,5526,-5271,-7253,1994,599,0,2439
50349000,1839,-1347,65,54,783,-22300,11629,-7834,-5831,7392,480,0,3880
50401000,1280,-929,89,166,791,-22971,9615,-7834,-22080,12930,480,-6080,5239
50449000,891,-919,24,41,1486,-25351,-1554,-8261,-27231,16529,480,-8120,6400
50501000,351,-1366,122,32,909,-33103,-14737,-8017,-26015,15220,599,-8320,6440
50549000,-169,-2043,-11,-11,1030,-37192,-18094,-7285,-21596,12819,480,-7280,6199
50601000,-890,-2805,143,128,913,-41281,-15042,-6064,-24928,9823,480,-9200,6080
50649000,-1377,-3156,70,212,514,-41037,-8267,-6186,-25692,7787,599,-9880,5720
50701000,-1661,-3218,160,173,936,-41953,-6558,-5515,-35816,4385,480,-13600,4679
50749000,-1823,-3188,166,103,1779,-44272,-5338,-3256,-41220,4591,720,-15519,4719
50801000,-2257,-3304,-78,22,837,-52329,-8695,-2951,-40508,4367,720,-15760,4760
50849000,-2810,-3499,-10,261,1360,-56113,-6680,-3806,-29338,882,599,-12480,3759
50901000,-3420,-3498,-126,97,319,-52695,-89,-5332,-4499,-3296,480,-4920,2400
50949000,-3421,-3422,225,36,1084,-38474,-638,-3317,10405,-6578,480,0,1199
51001000,-2336,-3373,152,59,1980,-5637,3267,-1792,7129,-6161,480,39,1319
51049000,-722,-2835,193,-15,2201,6874,9005,-144,3692,-4489,359,239,1440
51101000,614,-2414,213,38,442,-3745,-3262,-83,1395,-2563,480,1080,1559
51149000,1128,-2302,195,144,1056,-8139,3084,405,75,-1842,359,1080,1760
51201000,1676,-1755,-275,-69,2201,-3196,1497,-571,-1909,1572,359,1040,2279
51249000,2132,-1712,348,202,1369,-998,-12174,39,-2242,2540,480,1319,2520
51301000,2166,-1598,-13,131,1056,-10154,5831,-1181,8499,3843,480,5000,2880
51349000,2563,-1148,46,229,2157,15480,-2896,-1547,14017,5302,480,7079,2920
51401000,3723,-1570,284,-80,1225,18776,-10037,-937,24108,2849,480,11760,2520
51449000,4274,-1328,-33,-41,1801,14504,12178,-2036,36496,-562,359,16359,1240
51501000,5054,-996,179,1,1945,34706,1131,-4538,44596,-3110,240,19920,-39
51549000,6375,-1355,-20,107,2159,49782,-6436,-6430,41346,-3957,359,19920,-39
51601000,8076,-1814,102,99,1621,62294,-3385,-7834,35409,-5562,480,19880,-39
51649000,9563,-1962,173,-83,1547,59914,1925,-7102,31626,-5752,480,19880,39
51701000,10683,-1786,91,32,2201,56374,12423,-7224,16429,-5239,480,16160,39
51749000,11014,-1461,65,88,631,43434,18648,-6491,9007,-4545,359,14000,0
51801000,10732,-1143,-33,32,592,27931,19686,-4965,5843,-2950,359,12679,160
51849000,10031,-922,-31,115,736,17128,15474,-5087,2974,-76,359,11160,920
51901000,9167,-877,122,57,715,11818,9981,-5210,-1823,1928,359,8559,1519
51949000,8388,-1155,-31,-8,-887,7912,-333,588,-2717,1863,359,7600,1719
52001000,7657,-1361,240,-40,1885,5043,4488,-205,-2813,1554,480,6719,1879
52049000,6943,-1405,138,-80,1278,10048,4427,405,-3110,1447,599,5999,1879
52101000,6420,-1827,-36,3,1609,11696,-1737,-327,-3542,157,599,5239,1879
52149000,5968,-2200,-107,-16,1283,7912,2840,-327,-2899,-754,599,5079,1919
52201000,5415,-2492,-160,-108,1016,10231,-4849,-144,-3646,443,480,4200,2639
52249000,5284,-2680,61,69,1864,16213,-1492,-815,-6506,1167,480,3120,3080
52301000,5180,-2599,6,111,1844,11147,1680,161,-8342,1441,480,2400,3080
52349000,4714,-2542,155,124,1688,6020,-1737,893,-11379,1471,480,999,3039
52401000,4099,-2478,67,132,1927,1320,6319,1381,-12177,-3355,240,39,1359
52449000,3376,-2144,69,151,379,-7346,154,-510,-10759,-6557,0,-80,0
52501000,2524,-1995,12,128,907,-12473,-1615,-1853,-15612,-5987,-1919,-2680,0
52549000,1962,-1483,-119,-8,1019,-14731,10103,-1425,-17676,-4812,-3240,-3839,0
52601000,1619,-730,-91,132,309,-12534,6380,832,-19258,-2191,-6839,-4800,0
52649000,1414,-723,18,-9,984,-11069,-3995,3395,-22087,-1929,-8400,-5920,39
52701000,1197,-853,-203,-18,749,-17234,7784,3823,-25192,-2440,-10799,-7200,39
52749000,880,-370,-70,134,1914,-27915,11385,6081,-32367,686,-11040,-9840,680
52801000,316,-230,-149,-23,1621,-35727,2840,6264,-28549,1228,-11279,-9200,639
52849000,-267,-620,165,166,75,-35178,-11563,5593,-16490,-1533,-12240,-5679,0
52901000,-491,-1566,-176,112,58,-21933,-13516,9194,-10645,-4700,-12839,-4040,0
52949000,-46,-1860,-234,146,-240,-5942,643,11940,-3356,-5548,-12720,-1280,0
53001000,802,-1774,-143,-31,744,2724,-2408,13344,-2407,-5202,-11640,0,39
53049000,1523,-1679,-165,137,43,-327,399,13344,-4434,-825,-8400,-39,1440
53101000,1666,-1118,130,-96,1332,-17661,5037,10842,-5000,8765,-6000,0,4040
53149000,1485,-1230,4,-100,1507,-14853,-21573,8583,-4335,14260,-4559,39,5880
53201000,1911,-1694,-16,262,1398,-1853,-17606,4616,-5734,19515,-2160,0,8199
53249000,2248,-1675,-8,213,476,-10276,-22000,4006,-6844,22224,-1799,-39,9080
53301000,2285,-2415,-188,-88,1558,-10398,-40799,1747,-6857,25033,-1319,0,10760
53349000,2386,-3231,160,32,1128,-6186,-36466,588,-7009,23094,-1080,39,10799
53401000,2371,-3866,235,13,1396,-8933,-39273,1137,-7114,20921,-840,0,10840
53449000,2355,-4563,19,-178,1502,-3318,-33475,832,-6870,18329,-360,39,10599
53501000,2376,-4623,33,-16,1863,-6614,-20719,893,-7010,13010,240,39,8959
53549000,2282,-4827,-34,-29,2201,-7590,-27127,-144,-7002,5225,359,-39,6519
53601000,2033,-4771,-167,19,654,-16196,-15653,-3134,-6219,-14315,480,-39,0
53649000,1747,-4371,-132,176,859,-14609,-4361,-3867,-5371,-13429,480,0,-39
53701000,1658,-3615,214,26,873,-11924,4732,-6247,-4976,-11087,359,0,-80
53749000,1801,-2858,5,-23,-332,-5210,4610,-6857,-5293,-9091,480,0,-80
53801000,2453,-1989,-78,125,67,-5271,6502,-6003,-7359,-6089,359,0,-39
53849000,2970,-1350,-91,178,370,-7529,2474,-5332,-8733,-4289,480,0,0
53901000,3366,-858,-88,123,-186,-6247,3817,-4782,-10219,2585,480,-39,1719
53949000,3578,-407,102,23,882,-12168,4061,-2829,-10730,8933,359,0,3440
54001000,3507,-357,-58,115,1254,-12717,-3751,161,-10401,17406,359,39,6159
54049000,3465,-707,-58,74,825,-12900,-19559,222,-10116,20338,480,79,7400
54101000,3531,-1276,-170,6,143,-12412,-24564,1137,-5794,24970,359,1600,9600
54149000,3677,-1716,103,63,1360,-9909,-25479,2053,-5439,28004,480,1840,10959
54201000,3833,-2691,115,31,2201,-2341,-32193,3456,-5379,25884,480,2040,11320
54249000,3829,-3553,176,188,1431,-5698,-27249,3212,-5305,25350,359,2079,11879
54301000,3683,-4068,98,-74,2201,-11496,-23465,4494,-4810,24155,359,2079,12119
54349000,3376,-4596,-24,107,3,-10459,-21390,4677,-3994,22749,359,2079,12080
54401000,3087,-5068,381,153,2029,-8017,-17362,5593,-3262,20673,480,2000,11960
54449000,2990,-5467,48,56,948,-6736,-12357,5959,-2985,19845,359,2000,12040
54501000,3048,-5692,169,186,598,-4233,-16568,6386,-3144,18921,359,2000,12000
54549000,3236,-5928,228,26,988,-754,-15164,6874,-4328,16883,359,1760,11519
54601000,3455,-5820,-186,68,628,-1120,-8450,6508,-5805,13379,480,1519,10280
54649000,3497,-5628,77,-89,1038,-2646,-10159,5593,-6053,12967,480,1480,9960
54701000,3588,-5430,214,147,999,2236,-2591,5654,-5966,11068,480,1600,9119
54749000,3741,-5097,90,18,560,6447,-2835,5043,-4773,9445,359,2119,8280
54801000,4011,-4897,-16,142,1911,8400,1253,4738,-4833,7987,359,2400,7560
54849000,3981,-4482,285,-29,1867,2724,7479,4860,-2195,6275,359,3280,6640
54901000,3696,-4186,133,-51,1447,2846,7967,3456,1869,1719,480,4319,4760
54949000,3715,-3972,266,165,343,11574,13033,3334,1939,459,480,4319,4159
55001000,4019,-3613,306,-2,1751,16213,19625,3762,3781,-2079,359,5280,2920
55049000,4356,-3261,251,34,1925,18654,21578,3518,8105,-4228,359,7000,1919
55101000,4685,-2834,-145,5,1520,19020,24202,3151,12942,-4663,359,9000,1280
55149000,4945,-2462,-91,197,709,19509,24141,4067,17567,-4817,480,10760,920
55201000,5283,-2050,-42,-33,961,27687,28109,3762,29990,-6151,359,15280,0
55249000,5919,-1427,77,-128,1924,37880,30611,3334,32193,-4552,359,16520,0
55301000,6936,-917,-131,-78,1345,47951,30794,2541,32591,-2631,359,17800,39
55349000,7882,-508,-25,-184,1803,47524,33968,2297,30867,-1756,240,18039,0
55401000,8447,40,-56,90,1400,43556,37996,2907,30098,122,240,18480,0
55449000,8803,256,-57,-150,1077,41420,31466,2541,29313,657,240,18520,-39
55501000,9058,110,77,-83,939,38002,24324,893,32584,210,359,19920,-39
55549000,8947,-22,146,-69,1652,31960,30550,1625,32803,-83,240,19920,0
55601000,8870,211,38,-31,569,38613,37569,2114,33148,635,359,19920,0
55649000,9058,279,158,-127,1244,41298,32320,3456,32692,883,240,19920,0
55701000,9277,120,-113,-7,1566,40566,28292,2602,31326,362,359,19720,0
55749000,9338,-112,143,72,721,39162,23531,1564,25542,-199,359,17840,0
55801000,9382,-288,36,-81,596,33364,27620,1381,8813,-984,359,12320,-39
55849000,9274,-262,80,-139,1972,28176,30733,2358,-6899,-844,359,7000,0
55901000,8491,-272,128,161,2097,-1731,24996,3029,-20554,-698,240,1640,39
55949000,6696,-332,185,172,838,-25718,23592,1686,-20959,-835,359,39,39
56001000,4865,-355,365,-73,1746,-20530,26033,1625,-14597,-947,359,0,39
56049000,3948,-398,375,19,1532,-7895,18648,832,-12233,-958,359,-39,39
56101000,3374,-752,194,61,1361,-11374,21212,-327,-10122,-2138,359,0,39
56149000,2723,-789,108,65,2167,-12351,25423,-876,-8451,-2285,240,0,39
56201000,2228,-700,145,68,275,-12290,24080,-693,-6685,3299,240,0,1800
56249000,1740,-1013,-63,201,1669,-19370,10714,-998,-5544,7454,359,0,3399
56301000,1094,-1841,-19,65,1150,-19431,3939,-632,-3282,13795,359,0,6440
56349000,729,-2374,-60,129,-377,-14853,1314,-693,-2411,21126,359,-39,9320
56401000,895,-3309,203,349,1387,-6186,-14920,-1364,-2805,28832,359,-39,12920
56449000,1091,-4619,30,245,218,-12046,-21573,-510,-3257,29232,240,0,14159
56501000,1051,-5544,205,41,1308,-16806,-19681,-510,-3153,30165,240,0,15599
56549000,1156,-6441,180,20,1103,-10886,-28897,527,-3621,29924,359,-80,16240
56601000,1220,-7580,-34,124,-2,-16440,-27249,222,-4622,30417,480,-319,17720
56649000,1154,-8281,81,37,2201,-13572,-30728,-266,-6346,30081,480,-959,18199
56701000,1117,-9018,461,18,1093,-19553,-32193,527,-6712,27665,480,-1119,18239
56749000,998,-9355,377,5,808,-17234,-22794,-449,-6474,26477,480,-1160,18160
56801000,1051,-9557,98,120,1594,-15647,-25296,344,-9873,23646,480,-2239,17439
56849000,1174,-9731,120,195,2137,-18760,-21573,710,-12722,17975,359,-3079,15720
56901000,940,-9558,-92,-126,1699,-29319,-15897,1442,-20581,12963,480,-5920,13880
56949000,326,-9089,-56,15,1771,-37497,-9549,1686,-22085,11960,359,-6920,13160
57001000,-523,-8374,-48,-2,1974,-39145,-7047,2724,-29869,10995,480,-10480,12040
57049000,-1254,-7948,-34,188,902,-42807,-9610,2663,-30393,11758,480,-11280,11919
57101000,-2122,-7592,223,-34,2201,-47629,-13577,1137,-29872,11182,359,-12080,11320
57149000,-2658,-7300,60,68,917,-44089,-12784,2419,-28327,10833,359,-12040,10959
57201000,-2948,-6895,257,108,1133,-41770,-7047,2114,-18875,6073,359,-9240,8920
57249000,-3014,-6534,88,44,1601,-35788,-7596,2236,2829,-657,240,-2079,6359
57301000,-2535,-6216,182,-169,1350,-11740,1131,771,7605,-5928,240,0,4240
57349000,-1348,-5425,97,-134,794,3822,11568,344,4961,-6137,480,79,3520
57401000,-167,-4921,-188,13,1485,282,-89,1564,6022,-7925,359,1840,2279
57449000,532,-4769,57,34,1280,-144,6319,1442,5739,-9465,480,2320,1679
57501000,1343,-4001,-97,-22,980,10842,14925,893,2690,-6845,480,2239,1719
57549000,2301,-3691,-30,64,1403,15053,-760,-22,-1397,-5947,359,1679,1719
57601000,2915,-3609,231,-52,150,6081,9615,954,-5025,-5069,480,1240,1919
57649000,2997,-3314,-194,87,801,99,8150,1320,-5473,-4279,480,1159,1919
57701000,3044,-3559,111,4,1777,6508,-3934,1381,-6133,-1319,359,999,3120
57749000,2997,-3424,399,216,1124,-2890,11202,2175,-6604,437,359,840,3640
57801000,2799,-3422,-84,-183,890,-1426,-9793,1747,-8279,2212,359,39,4159
57849000,2552,-3859,284,268,1332,-4782,1009,2297,-7667,1283,480,39,4279
57901000,2361,-3453,-292,8,1594,3761,3572,4616,-4085,2120,480,999,4159
57949000,2687,-4081,402,321,1306,11208,-18826,4616,2062,-315,359,3320,3840
58001000,2584,-4147,111,-278,1163,99,15596,5532,37847,-5242,480,15200,2400
58049000,3187,-3583,-94,136,1809,43007,3572,6020,45442,-4079,480,18080,2239
58101000,5326,-4158,254,215,1077,57350,-5460,4677,43779,-9835,480,19920,880
58149000,6576,-3726,-9,56,846,41115,18343,4250,40474,-10805,480,19920,239
58201000,7409,-3603,-180,31,1067,47829,-7840,1747,37650,-10811,480,19960,0
58249000,8299,-3912,402,-109,233,51308,2352,2602,33560,-9217,480,19360,840
58301000,8752,-3207,-30,43,481,40016,19808,5104,30262,-3983,480,18840,1879
58349000,8823,-2906,16,-173,1454,37941,-394,2297,21451,-3653,480,15959,1679
58401000,8781,-3289,-40,86,366,33852,-12784,771,11696,-6509,359,12679,1119
58449000,8454,-3734,86,17,813,25185,-12235,1320,8016,-7666,480,11199,1119
58501000,7854,-3881,193,142,1993,18105,-2164,161,3797,-7684,599,9119,1319
58549000,7271,-3958,316,64,1652,14015,277,-1242,8126,-4981,359,10079,2279
58601000,6693,-4127,164,90,1552,12551,-3079,-1975,10278,-4943,359,10120,2479
58649000,6347,-4240,-121,-30,257,13405,-2286,-4721,19944,-4676,480,13039,2679
58701000,6139,-4186,161,-127,2201,19936,-3568,-4599,33662,-4759,480,17360,2600
58749000,6228,-4499,-176,151,-603,30434,-8939,-3378,35779,-6343,359,18120,2320
58801000,6714,-4641,66,15,356,37697,-4666,-3623,39496,-5644,359,19880,2760
58849000,7308,-4466,-124,98,897,41420,-4178,-1059,32878,-5108,359,18160,2799
58901000,7931,-4427,259,97,2014,37636,-5826,-510,4405,-8841,359,9400,1480
58949000,7951,-4235,142,180,953,16518,1253,100,-18319,-10403,480,1919,799
59001000,6751,-4192,-194,65,445,-11802,-821,954,-20135,-12696,480,39,-39
59049000,5164,-4017,-29,-31,-144,-19126,1802,954,-16391,-12083,480,-39,39
59101000,3955,-3580,108,179,-123,-5576,7112,1442,-11867,-10740,359,0,0
59149000,3265,-3514,-164,0,-139,-11130,-2896,1198,-10187,-10505,359,0,0
59201000,2635,-3499,-123,-17,1600,-13266,4976,1870,-7906,-10498,240,0,0
59249000,2096,-3095,-33,15,1603,-12473,4549,1015,-6625,-9478,480,-39,0
59301000,1932,-2973,-29,139,954,-9787,2413,161,-5797,-9039,480,0,-39
59349000,1792,-2914,27,26,2201,-13755,643,222,-5452,-8745,359,0,0
59401000,1470,-2945,60,102,1175,-13633,-3201,-83,-4412,-8837,240,0,0
59449000,1376,-2820,138,176,436,-10154,3572,283,-5436,-8588,359,-440,0
59501000,1318,-2640,179,126,424,-13144,-4117,893,-10195,-7922,359,-2079,0
59549000,1064,-2634,103,-75,1430,-20346,1680,1259,-11114,-7864,359,-2600,39
59601000,715,-2349,38,262,1008,-17783,-821,588,-9947,-7048,359,-2600,0
59649000,616,-2792,380,15,1751,-21750,-10282,1931,-9723,-8089,240,-2600,0
59701000,166,-2448,-45,409,955,-23337,13399,-22,-498,-7345,359,0,0
59749000,398,-2338,486,145,2014,-8323,-11685,-83,-911,-6794,599,0,0
59801000,913,-2742,-235,162,855,-13266,-3446,-2768,-9459,-3787,599,-2239,1480
59849000,1058,-2607,203,-8,1362,-17539,2230,-5759,-24649,-934,959,-7160,2320
59901000,773,-2126,3,127,51,-30661,10408,-7712,-33039,-1338,839,-10240,1679
59949000,178,-1541,-107,145,-650,-43296,12667,-7468,-39235,-966,599,-12799,1319
60001000,-519,-958,157,105,1292,-53000,8883,-7041,-58202,2164,359,-19920,1679
60049000,-1375,-1095,39,46,1173,-58432,-6436,-6003,-56252,791,720,-19960,1280
60101000,-2637,-1990,54,95,309,-69175,-17362,-6064,-44648,-4891,720,-17520,360
60149000,-3706,-2625,197,23,1278,-68930,-7596,-5148,-26883,-7706,599,-12519,0
60201000,-4251,-2582,-94,87,1391,-54587,521,-4599,-4526,-7746,599,-5759,0
60249000,-3730,-2597,197,-28,491,-29563,-6009,-3439,-3582,-7669,480,-5080,0
60301000,-2370,-2707,-112,-8,315,-15036,-1370,-2402,-5007,-8122,359,-4040,0
60349000,-1280,-2512,220,118,1099,-18210,399,-3867,-6511,-7659,599,-3600,0
60401000,-528,-2504,152,135,1776,-22177,-5643,-3806,-7535,-7513,599,-3040,0
60449000,-120,-2371,-153,8,880,-19614,643,-3256,-7268,-6968,480,-2600,79
60501000,293,-2095,148,86,164,-12351,-2103,-4111,-17441,-6165,480,-5520,39
60549000,903,-2285,-4,139,-134,-7224,-5521,-3134,-36378,-3674,480,-11320,999
60601000,1163,-2587,-229,205,218,-26694,-5094,-3256,-45609,-5122,480,-14040,880
60649000,382,-2647,119,-162,1290,-46714,-3079,-2219,-40369,-5951,480,-12880,639
60701000,-805,-2493,-55,135,-577,-41709,93,-3195,-4902,-7601,599,-2439,-39
60749000,-997,-2332,-55,137,1363,-15036,-89,-4111,3142,-7150,480,0,-39
60801000,12,-2110,-34,-75,57,14382,2291,-2890,81,-6451,480,39,-39
60849000,1381,-2040,210,-58,1240,19264,-3201,-1669,-3511,-6022,480,0,0
60901000,2423,-2175,-1,165,1536,10048,-1676,466,-2349,-6647,480,1640,-39
60949000,2809,-1992,-48,-17,1166,6996,8883,100,6117,-6132,480,4800,0
61001000,3448,-1933,125,63,1083,26161,-2469,1259,17015,-5801,359,9119,0
61049000,4461,-2339,54,167,1065,38368,-89,954,23888,-6920,480,12240,0
61101000,5598,-2236,284,-95,1596,44167,5281,2175,30605,-6588,480,15799,39
61149000,6670,-2402,203,-109,1389,56496,-3751,2114,28019,-5993,480,15799,360
61201000,7904,-2593,-42,-99,1071,57472,6502,3090,15285,-6459,359,13000,439
61249000,8554,-2279,25,-98,1189,43251,4305,4067,-2616,-5817,359,7639,399
61301000,8314,-2464,15,32,881,22316,-7474,4128,-17984,-4754,359,2320,880
61349000,7124,-2548,44,159,1842,160,7967,3945,-15858,-5319,480,2079,840
61401000,5886,-2165,-268,-95,2201,9438,-150,3334,-13940,-4095,359,1240,799
61449000,5217,-2238,-20,66,1516,11269,-3873,3518,-12696,-4165,480,1080,840
61501000,4598,-1904,-260,-121,641,9804,10836,5104,-10435,-2113,359,1119,1199
61549000,4230,-1319,283,11,980,14870,1741,4372,-9568,-22,359,1080,1359
61601000,3882,-1664,-65,-185,724,6874,-4971,5165,-8527,-72,359,1040,1640
61649000,3497,-1567,-121,-137,1303,12612,8333,3884,-7510,23,480,1040,1640
61701000,3259,-1831,110,-54,2076,12428,-10648,3212,-1737,-2135,359,2679,1119
61749000,2940,-2197,-201,53,2201,10231,5648,4250,4352,-6068,359,4440,199
61801000,2822,-1719,281,-133,864,19203,10286,4006,19011,-5037,359,9159,39
61849000,3396,-1983,-244,-130,1779,37636,-943,1259,27684,-5480,480,12480,79
61901000,4362,-2101,425,-56,1331,42763,11751,1564,30112,-1264,480,14400,1679
61949000,5312,-1826,-10,-102,1587,49965,18648,1076,23550,7307,480,13000,4319
62001000,6311,-1824,166,173,1877,49355,5648,466,7346,17447,359,8759,7639
62049000,6774,-2157,-75,-3,1286,37941,-5826,-510,1165,20604,480,7119,8959
62101000,6558,-2763,12,85,1133,21645,-15653,-327,-5275,21349,480,4800,9879
62149000,5853,-3674,70,43,276,11757,-25479,527,-9069,20903,480,2960,10480
62201000,4967,-4556,-77,-26,364,5409,-22489,1198,-14663,25331,359,79,13000
62249000,4223,-5019,76,86,934,-388,-23892,771,-13066,31204,480,0,15320
62301000,3332,-6003,41,-22,1016,-8017,-32742,954,-9998,32988,359,0,17000
62349000,2654,-7030,25,0,1544,-7651,-35794,2724,-8124,30328,480,39,17000
62401000,2199,-7898,144,-101,1617,-2341,-34635,1686,-6479,21664,480,39,15120
62449000,2009,-8313,138,138,589,-2158,-29691,-937,-6230,12832,359,-39,12520
62501000,1883,-8584,-147,-68,472,-5759,-21207,-1853,-5651,8686,480,0,11480
62549000,1732,-8070,-59,18,922,-2890,-11197,-815,-5220,7538,359,0,10680
62601000,1741,-7582,-207,48,391,1015,-14981,-1975,-8225,6053,359,-1000,9600
62649000,1863,-7146,70,120,763,1869,-14676,-3195,-8566,669,480,-1000,7439
62701000,1999,-6753,59,8,351,-571,-9122,-3256,-9237,-6700,359,-1080,4519
62749000,1934,-6097,104,139,1484,-7041,2047,-3928,-13705,-9034,240,-2600,3239
62801000,1578,-5319,208,75,696,-11496,-1615,-3989,-21055,-15957,359,-5440,0
62849000,1123,-4745,197,27,1665,-18088,6380,-4904,-28619,-14569,240,-8320,0
62901000,501,-4043,0,148,2201,-21689,8699,-5698,-32823,-12129,359,-10440,0
62949000,-72,-3882,-139,115,146,-23581,-4056,-5393,-36630,-11486,359,-12200,39
63001000,-652,-3609,-118,95,666,-29013,8333,-6125,-40643,-10828,480,-14200,0
63049000,-1423,-2753,92,77,1736,-36460,10897,-5454,-38875,-8520,359,-14240,39
63101000,-2252,-2440,125,-12,1841,-39450,1497,-6430,-34523,-7320,359,-13760,0
63149000,-2768,-2355,72,242,-968,-36277,3817,-6857,-29424,-7020,359,-12519,39
63201000,-3015,-2098,266,15,106,-29441,7845,-7407,-28392,-6175,359,-12480,39
63249000,-3045,-2185,97,67,702,-27304,643,-8444,-23021,-6429,480,-10720,0
63301000,-3110,-2291,2,31,1471,-26572,7662,-8444,-6029,-7114,359,-5120,-80
63349000,-2998,-2142,-38,-3,842,-20102,11629,-9299,371,-6614,359,-2920,-39
63401000,-2414,-2188,140,99,2201,-7102,6746,-10459,884,-6565,359,-2120,0
63449000,-1592,-2161,209,90,1626,-1670,10653,-10336,-1375,-6564,480,-2200,0
63501000,-777,-1930,-129,-16,-72,-2280,11934,-10642,-4147,-5790,480,-2159,0
63549000,-304,-1916,234,-87,1321,-7041,8455,-11618,-5389,-5854,359,-2159,-39
63601000,-67,-1977,124,201,305,-10337,13826,-13205,-396,-6053,240,-199,-39
63649000,83,-1800,2,152,331,-11130,15108,-13693,-220,-5621,359,0,-39
63701000,234,-1701,94,55,1510,-7895,13155,-12290,-704,-5223,359,0,-39
63749000,372,-1692,278,-49,1566,-8261,14437,-12900,-1103,-5166,359,0,-39
63801000,466,-1791,-240,61,237,-7956,18221,-13693,-1519,-5494,480,-39,-39
63849000,475,-1624,-93,-17,153,-11740,19258,-13022,-1470,-5076,359,0,-39
63901000,407,-1461,100,4,2201,-13083,20723,-12351,-1103,-4623,359,39,-80
63949000,442,-1253,358,185,2201,-6858,22432,-13205,-1343,-4025,480,-39,-39
64001000,617,-951,55,152,1434,-3440,22493,-14304,-1851,-3333,480,0,-160
64049000,910,-618,-17,199,250,1320,25911,-14731,-2537,-2538,359,0,-160
64101000,1331,-285,45,155,219,4860,25728,-13938,-3873,-1337,359,39,-160
64149000,1740,-262,137,50,327,4494,23775,-13632,-5041,-1607,359,0,-279
64201000,2125,-207,133,184,1231,4738,25667,-13083,-6376,-1583,240,0,-319
64249000,2297,23,-177,74,459,-3623,30672,-12106,-6826,-1040,359,0,-319
64301000,2350,394,60,-22,623,-9848,29696,-10520,-7052,343,359,0,-279
64349000,2278,673,61,30,141,-10459,27742,-11130,-6805,1245,359,0,-199
64401000,2192,900,71,-17,2152,-8628,19808,-9421,-6576,2221,359,0,-160
64449000,1912,650,61,-126,1167,-5027,12545,-10459,-5983,1806,359,-39,-119
64501000,1791,211,-45,186,263,-1609,11324,-9299,-5494,395,359,-39,-80
64549000,1933,-233,63,-31,1973,1137,9737,-8811,-5737,-550,359,0,-39
64601000,2195,-640,-5,-115,484,1259,8638,-7468,-6585,-2042,359,0,-39
64649000,2394,-1019,332,33,2201,7240,11141,-6247,-7107,-2976,359,0,-39
64701000,2497,-1258,-133,-20,65,7240,13094,-5332,-7493,-3895,359,0,-39
64749000,2497,-1343,70,-168,2201,8705,11812,-4721,-7627,-4228,480,-39,-80
64801000,2401,-1507,44,58,456,2968,5648,-3501,-7324,-4401,480,-39,39
64849000,2240,-1536,2,-21,2201,3639,10775,-2280,-6774,-4674,359,0,0
64901000,2231,-1348,-106,-160,376,8278,10347,-1059,-6693,-4045,359,0,0
64949000,2395,-1322,145,-140,1855,12551,6441,161,-7090,-4048,240,0,-39
65001000,2647,-1309,58,59,1318,12489,6990,405,-7941,-3809,480,0,39
65049000,2935,-1339,-183,74,1006,16335,643,-388,-8642,-3948,359,0,0
65101000,3136,-1385,36,-35,176,12245,-943,466,-9409,-4036,359,0,39
65149000,2934,-1411,126,147,-4,1686,-3751,1442,-9011,-4098,359,0,39
65201000,2503,-1619,63,-97,-360,2297,-5094,2663,-7391,-4979,359,39,-39
65249000,2245,-1767,117,-83,1004,2602,-3385,1564,-6997,-5275,480,-39,0
65301000,1843,-1725,-62,-113,523,710,1741,1076,-5530,-5176,359,0,0
65349000,1707,-1841,-72,180,-132,6630,-4605,2053,-5086,-5437,359,0,0
65401000,1978,-2372,46,40,623,14626,-17911,-266,-5934,-6996,359,0,39
65449000,1734,-3101,-12,-28,1059,-5576,-17850,-754,-5591,-8906,240,-39,39
65501000,1033,-3694,179,-5,1113,-14243,-17362,-693,-3221,-10962,359,-39,39
65549000,662,-4101,-87,-51,1975,-5393,-13944,-1608,-2202,-12143,359,-39,0
65601000,492,-4445,-116,-129,758,-2158,-17301,-510,-1476,-13336,480,0,0
65649000,270,-4276,-222,0,895,-6003,-11258,100,-974,-12876,240,0,39
65701000,-150,-3929,-160,174,1458,-11557,-19315,-876,572,-4109,359,39,2560
65749000,-407,-4045,-106,106,204,-8567,-22183,-693,2249,1203,240,360,4440
65801000,-341,-4177,11,53,154,343,-22794,-571,13865,7868,359,4279,6800
65849000,100,-4220,-59,52,1479,11696,-22000,-1059,12827,11466,359,4279,8039
65901000,745,-4426,-55,-230,1642,7363,-36649,-1242,16363,13960,359,6199,9080
65949000,1120,-4909,-9,156,1553,9865,-35428,-449,24233,11993,359,9119,8840
66001000,1750,-5273,-71,-163,976,18532,-33048,-1303,23787,10098,480,9679,8640
66049000,2509,-5483,-75,-76,1316,25734,-34268,-2768,29041,6736,480,12040,7679
66101000,3400,-5747,211,-41,1138,26894,-31400,-1303,30959,6517,359,13719,7920
66149000,4209,-5645,84,-164,1864,29335,-25723,-937,28577,5922,480,13599,7639
66201000,4787,-5724,128,-70,1004,23415,-34818,-22,31356,5506,359,15240,7560
66249000,5063,-5536,-63,-43,210,26772,-17728,1320,31291,5421,240,15439,7439
66301000,5313,-5020,-76,-26,764,17006,-26822,1747,17658,-900,359,11199,4719
66349000,4927,-5321,-21,-94,545,-4355,-30972,2114,-45,-5774,240,5039,3359
66401000,3924,-4815,-183,56,660,-15403,-2835,2480,-11773,2833,240,0,5759
66449000,2936,-4045,156,273,1737,-21811,-20352,2358,-9310,9600,359,0,7279
66501000,2067,-4518,2,112,1949,-18637,-31400,2846,-12681,17883,480,-2159,10480
66549000,1329,-4332,-139,159,804,-19980,-16324,2724,-17169,23159,480,-4279,12119
66601000,920,-4608,139,177,639,-10093,-44644,2480,-17402,28293,480,-4880,14040
66649000,574,-5587,176,235,1483,-20468,-40494,4433,-16527,26777,359,-4839,14400
66701000,-159,-5282,-99,119,1448,-21567,-18399,6386,478,22673,359,0,12839
66749000,-95,-5428,49,-93,1954,2175,-43179,3334,1144,17859,359,199,11280
66801000,561,-5582,184,166,1123,6264,-14432,4128,16794,15413,359,6159,10720
66849000,1200,-4653,-145,-53,1757,8827,-4849,5349,19077,18046,480,7439,10799
66901000,2188,-4784,166,215,1446,25185,-34024,5837,28955,13365,480,11840,9240
66949000,3131,-4778,-132,-197,2090,21401,1070,4250,34928,11633,480,14639,8759
67001000,4013,-3823,58,61,1238,35988,-1004,6142,39438,10250,480,17160,7240
67049000,5333,-3965,-13,216,2201,48622,-17789,3579,44435,9859,480,19920,7200
67101000,6251,-3521,212,-47,1829,36293,14925,4921,41004,8515,480,19920,6359
67149000,7024,-2833,-122,134,1813,47829,-89,4738,39188,8123,480,19920,5599
3,-2971,296,-1,1942,46608,-5948,3151,35689,5005,480,19920,4640,
67249000,8365,-2315,-240,161,1681,33302,23592,3151,30436,6491,359,18480,4679
67301000,8579,-1610,71,33,1797,39711,4244,3029,25741,8969,240,17160,4600
67349000,8761,-1800,213,331,570,30434,3878,2358,21331,6505,359,15880,3959
67401000,8507,-1226,-229,105,735,18105,22127,2785,6877,3400,480,10799,2360
67449000,7956,-651,186,1,-202,8583,9981,2419,-2892,4797,480,7119,2279
67501000,7096,-788,94,115,268,-205,10653,588,-21408,2075,599,-39,1480
67549000,5764,-649,85,-185,1037,-21384,21395,954,-18117,-870,480,0,399
67601000,3878,-327,4,33,1852,-26084,19014,649,-11636,-1101,480,0,-39
67649000,2718,-241,158,-6,2171,-12351,24630,405,-8470,-834,480,39,0
67701000,2035,-94,87,-50,2201,-12229,26339,-83,-6107,-402,480,0,-39
67749000,1577,-127,252,8,1453,-5698,19564,-83,-4964,-388,599,-39,-39
67801000,1219,-387,181,6,-689,-11863,26583,-449,-3779,-1283,599,-39,-39
67849000,904,-559,79,39,1048,-14060,26155,-632,-2938,-1812,480,0,-80
67901000,785,-948,242,27,475,-12107,26155,-449,-2477,-3326,480,-39,-160
67949000,651,-1063,396,145,2201,-7895,34151,-2219,-1968,-7873,480,0,-1560
68001000,751,-1141,254,-50,1004,-1426,33724,-4111,-2135,-11944,480,39,-2840
68049000,869,-1267,120,-184,-703,-7041,33358,-4294,-3235,-15188,599,-199,-3839
68101000,696,-1395,153,50,1028,-15586,42269,-5515,-22129,-17506,599,-6680,-4440
68149000,329,-795,162,244,270,-23032,59786,-4233,-22807,-18249,599,-7200,-5160
68201000,-266,385,187,-26,1965,-31699,71566,-3439,-21041,-19603,599,-7280,-6920
68249000,-954,1474,125,-36,1381,-34323,73641,-3134,-23257,-18974,480,-8600,-7640
68301000,-1558,2282,118,162,1168,-33164,69674,-2158,-21125,-17993,480,-8600,-8280
68349000,-1815,2716,-8,-4,272,-27182,64486,-2890,-19924,-16237,480,-8440,-8080
68401000,-1651,2853,116,130,705,-22361,59542,-937,-32366,-16038,359,-12440,-8200
68449000,-1333,2891,136,69,949,-15342,59481,-2280,-33235,-15703,480,-12480,-8120
68501000,-765,2878,8,-43,212,-14975,55513,-1975,-31903,-13683,480,-11400,-7439
68549000,-88,2554,148,159,1302,-19675,52034,-1547,-25502,-11587,480,-8639,-6440
68601000,130,2379,254,-55,1402,-20102,50753,-1731,-392,-4860,480,0,-3999
68649000,555,1948,85,46,1282,-15708,38424,-1059,-1463,3534,359,0,-839
68701000,687,1315,319,-11,2201,-21750,26583,832,-2062,5986,480,0,680
68749000,219,500,211,60,1680,-23764,14986,2236,442,11334,359,439,3120
68801000,-111,-760,88,27,0,-14426,3695,1747,4414,18237,359,1359,6840
68849000,42,-2110,168,210,-838,-2585,-3934,3456,7182,23646,240,2360,9760
68901000,866,-3554,-144,-48,1638,9194,-6803,5288,11199,34337,359,4600,15000
68949000,1862,-4584,-48,115,850,26894,-18949,7119,9933,46471,240,4960,19880
69001000,3087,-7026,81,142,327,25246,-75040,5349,11616,38681,359,6960,19920
69049000,3903,-9443,47,163,1633,24941,-57828,10109,10783,32156,359,7360,19920
69101000,5085,-10037,-95,-6,1888,38796,-32376,6752,7543,29647,480,7600,19920
69149000,5966,-10811,381,107,-337,28969,-58621,5898,5242,27895,359,7639,19920
69201000,6036,-11784,-170,32,1319,16823,-35855,8217,4810,24406,359,7639,19920
69249000,5844,-11202,-112,227,1632,19081,-24808,10598,5376,25774,359,7639,19920
69301000,6035,-11087,-173,-15,2201,19631,-39762,9072,4813,26377,480,7639,19880
69349000,5498,-10821,-241,-115,876,-5271,-24869,11635,-3746,22219,359,4400,18320
69401000,4301,-10336,227,-75,1257,-8994,-33902,12795,-63,22270,359,4279,17760
69449000,3816,-10202,38,-48,2201,343,-33048,13893,1357,21132,359,4319,17279
69501000,2881,-9360,397,261,781,-33652,-15286,15358,114,19079,359,2920,15720
69549000,1386,-8816,-153,-29,1475,-39450,-29324,13466,3663,20735,359,2839,15760
69601000,276,-8927,307,213,884,-35178,-37991,9682,-710,21338,480,39,16040
69649000,-759,-8982,205,-7,1286,-47385,-36283,8889,1554,20599,480,-39,15840
69701000,-1301,-9025,17,57,1322,-17295,-43485,5532,3783,15643,480,-39,14240
69749000,-614,-9314,280,115,2128,-4233,-40372,2297,2262,17465,359,0,15120
69801000,-225,-8985,-385,-65,962,-21018,-28897,1931,2956,32804,359,759,19920
69849000,-83,-9039,-15,-43,1930,-13205,-54410,1564,13015,32838,480,4200,19880
69901000,336,-9448,-157,-166,1209,-8689,-44217,-1059,20230,31413,480,7079,19920
69949000,915,-9437,-36,-4,666,7118,-47940,-327,23486,31515,359,8599,19920
70001000,2044,-10016,210,158,1368,15419,-55997,-876,25545,29711,599,10559,19920
70049000,2642,-9917,-48,183,2126,4128,-32315,-1608,25970,29380,480,11240,19800
70101000,2956,-9874,99,24,1150,9804,-46048,-1425,28929,17295,480,12600,15639
70149000,3632,-9637,181,163,1898,19264,-20108,-1364,27879,-1184,1560,12799,9360
70201000,4449,-8401,57,244,954,22194,-6375,-1792,37171,-6005,7440,16840,6400
70249000,5256,-7478,-25,200,1343,25246,-10098,-5881,40062,-9405,8760,18480,4479
70301000,6088,-6697,-33,-84,449,26406,-6619,-9177,38495,-13013,19320,18920,2360
70349000,6584,-5920,34,65,1808,25185,-394,-12595,40324,-18230,20520,19960,-39
70401000,7027,-5129,-96,149,-402,26955,4915,-15219,38677,-15389,20520,19920,0
70449000,7552,-4486,95,55,1544,29823,6136,-17050,37433,-13856,20640,19960,-39
70501000,7987,-4001,166,24,866,34523,8089,-17356,32796,-12124,18960,18920,-39
70549000,8438,-3646,-82,2,648,33425,7112,-16379,26466,-11077,17160,17200,0
70601000,8820,-3365,212,79,734,30983,6014,-14121,13019,-10095,10800,13160,0
70649000,8965,-3090,-163,-24,-284,21523,9737,-5332,9624,-8788,7680,12160,239
70701000,8716,-2738,-40,-60,64,12184,4732,39,9011,-5935,5639,11719,759
70749000,8285,-2894,178,165,1277,11147,-5399,710,5756,-6042,5520,10280,840
70801000,8063,-2932,-159,-17,1486,17433,4793,4677,-4029,-5676,1920,6719,1040
70849000,7734,-2678,-113,-1,384,3761,4244,9438,-9848,-4062,480,4560,1359
70901000,6537,-2878,-53,70,1476,-14914,-2774,11208,-6533,-2874,480,4360,1919
70949000,5512,-3106,322,-49,605,-5088,3328,10903,-4320,-1051,240,4200,2760
71001000,5248,-3321,-41,-47,1858,8583,-638,10781,-15385,4555,119,120,4839
71049000,4792,-3728,55,23,2177,-11191,-6253,10964,-14700,6966,240,39,5999
71101000,3419,-4036,43,143,1963,-21201,-1126,8706,-10259,6609,359,0,6240
71149000,2819,-3995,46,-139,1334,-510,643,5104,-8554,6249,359,0,6080
71201000,2562,-4053,322,323,1531,-8139,2840,4189,-7807,-2559,480,-39,3199
71249000,1920,-3696,182,31,1622,-17722,16756,1931,-9506,-11071,480,-1119,79
71301000,1227,-2933,258,99,639,-17173,27803,-144,-25521,-8800,480,-7280,0
71349000,659,-2304,0,-38,1698,-22544,24813,405,-28295,-7605,480,-8680,-160
71401000,-525,-2105,245,160,1360,-42685,14009,-327,-25063,-9676,359,-8880,-1119
71449000,-1572,-2026,152,-101,917,-37741,23958,-4050,-22439,-9720,480,-8920,-1160
71501000,-1969,-1722,-61,-42,505,-27182,22127,-4416,-15090,-8888,599,-7000,-1239
71549000,-2194,-1778,201,348,571,-31760,17733,-5637,-43,-8928,480,-2159,-1200
71601000,-2154,-1667,127,-95,106,-20713,26339,-6857,5982,-5243,480,-160,-80
71649000,-1400,-1494,92,364,812,-3867,21090,-5942,4718,-4322,480,0,39
71701000,-474,-1834,167,-16,478,-12595,11385,-5026,1542,-5623,480,39,-39
71749000,-249,-1492,193,273,1363,-21201,33541,-4233,845,-4858,599,0,0
71801000,126,-1029,-181,98,1747,-8139,13948,-3684,-380,-3089,480,0,0
71849000,926,-1506,328,142,1858,-2463,7479,-3073,-2336,-4299,480,0,0
71901000,1228,-1354,92,321,1689,-17722,31404,-4294,-3685,-4063,480,0,0
71949000,1225,-1360,86,-109,886,-14304,9554,-3806,-3622,-3789,480,0,0
72001000,1371,-1956,328,99,930,-12473,20235,-6491,806,-6108,480,1640,-80
72049000,1535,-1421,389,301,545,-9604,42513,-7285,15884,-4640,1320,6800,0
72101000,1941,-847,-115,-45,183,-2341,36470,-8750,28736,-2421,1560,11519,39
72149000,2679,-780,100,-6,848,8644,30306,-10214,38693,-2048,1560,15439,79
72201000,4044,-937,80,79,1385,28786,24324,-10581,36227,-51,959,16119,920
72249000,5725,-1246,-46,98,187,44533,12789,-8566,32347,-911,599,16199,880
72301000,7547,-1626,255,142,774,40810,16390,-7407,23198,-2478,599,15280,799
72349000,8553,-1517,25,110,1322,37148,25728,-3867,17314,-1772,599,14200,959
72401000,9389,-1476,127,127,212,45876,15963,-2524,6511,-349,359,11559,1359
72449000,10326,-1473,54,-173,1709,55031,20357,-3745,40,311,359,10160,1600
72501000,11567,-1424,-193,81,1167,58449,15413,-1975,-6382,1005,359,9440,1760
72549000,12126,-1715,100,236,630,33608,8455,-83,-8893,433,359,9159,1800
72601000,10790,-1994,21,121,1089,-30661,14498,4860,-7171,855,359,8400,2279
72649000,8094,-2042,223,258,765,-58615,11446,3518,-978,1930,359,8239,2639
72701000,5537,-2619,120,-132,1209,-35178,2596,1870,8106,5340,359,8239,4400
72749000,5069,-3235,143,-59,1161,10658,3389,1625,8071,5904,359,7720,5120
72801000,5978,-3754,-43,210,-388,37026,-455,2480,1383,7817,359,6440,6359
72849000,7313,-4620,319,-61,1402,40505,-13761,2358,-8152,5945,480,4400,6440
72901000,7823,-5664,262,176,2201,6996,-9915,5165,-10871,2087,480,4200,6359
72949000,6188,-5945,204,86,1576,-42258,93,6142,-11391,1067,359,2760,6280
73001000,4181,-6096,-184,-52,55,-20652,-6070,4128,-4745,791,359,2600,6359
73049000,3758,-6427,-33,-158,1380,-4660,-10587,7973,-3535,18,359,2600,6359
73101000,3607,-6800,136,278,206,-15097,-9122,11330,-4823,-3240,359,2000,5720
73149000,2849,-6855,89,151,-360,-35727,-5399,11208,-4807,-5759,359,1400,4960
73201000,2353,-6496,160,19,34,-15647,-1737,11757,-4179,-7250,480,959,4080
73249000,2849,-5988,57,302,-404,-6858,1375,12673,-6745,-7071,480,480,3719
73301000,3146,-5476,252,-73,1951,-26145,-333,14687,-8718,-5510,480,239,3640
73349000,2397,-5241,1,102,2201,-28220,-6314,12856,-6726,-4631,480,280,3719
73401000,1853,-5016,212,97,2128,-22788,-760,13710,-4721,-4008,480,280,3680
73449000,1405,-4709,132,252,1966,-25473,-2957,15480,-3479,-2697,480,320,3840
73501000,1058,-4768,-146,25,1004,-16806,-9488,14809,-414,-2546,480,920,3919
73549000,1393,-4724,168,39,1829,954,-4361,14870,-1126,-2312,599,920,3959
73601000,1937,-4911,-126,-11,1226,-4905,-12174,15175,-3052,-2973,599,920,3919
73649000,1788,-5078,120,162,505,-13144,-7169,13832,-2600,-3598,480,959,3880
73701000,1872,-5151,26,-47,833,-1731,-9793,12185,3381,-3814,359,2999,3880
73749000,2347,-5416,31,91,2201,6935,-13455,9987,10739,-5329,480,5840,3599
73801000,3169,-5686,355,212,1446,20729,-13822,5837,23011,-6499,359,10840,3520
73849000,4371,-5968,28,115,944,33852,-21085,1992,30868,-7162,480,14440,3520
73901000,5713,-6249,178,-19,1507,34889,-23892,1625,32299,-8429,480,16480,3440
73949000,6576,-6305,-93,-18,609,26955,-18399,2053,34990,-10406,359,18120,2839
74001000,7028,-6018,5,98,-303,13222,-8145,1259,36154,-9895,480,19080,2720
74049000,7046,-5535,204,72,931,14565,-3324,-83,36918,-8549,480,19360,2760
74101000,7170,-5137,26,-27,417,18349,-2530,-510,35007,-7253,480,18840,2720
74149000,7401,-4844,128,130,1068,23903,-6314,-1181,33448,-6216,599,18520,2799
74201000,7676,-4700,153,67,1804,20729,-11014,-1120,30851,-5822,480,17960,2760
74249000,7746,-4702,-17,172,887,20668,-10282,-1303,28508,-5829,599,17240,2760
74301000,7961,-4630,92,135,1191,24391,-11197,-2524,21955,-5610,480,15280,2760
74349000,8401,-4780,149,-107,1533,24391,-20535,-937,10861,-4828,480,11960,3120
74401000,8557,-4796,-110,150,868,7057,-12235,2602,-8633,-1789,359,5680,4200
74449000,7895,-4554,-173,27,1063,-14914,-17911,1809,-17229,2943,480,2320,5520
74501000,6253,-5186,184,127,1739,-32859,-31827,283,-18759,3519,480,0,6359
74549000,4265,-6094,223,266,2056,-41587,-23770,-205,-13768,2689,480,0,6879
74601000,2707,-6574,313,-81,943,-28647,-25113,405,-13041,6076,359,-1640,8599
74649000,2027,-7173,-44,292,714,-25107,-31949,466,-22229,8818,480,-5279,10000
74701000,1113,-7599,-111,244,681,-43662,-26639,649,-25181,8521,599,-7280,10439
74749000,221,-7940,96,108,1235,-42197,-34146,-998,-21588,3549,359,-6879,9040
74801000,-267,-8157,39,171,1276,-34751,-21695,-1486,801,-7913,359,0,5520
74849000,-340,-7499,125,58,1471,-19370,-14005,-144,1213,-9196,359,39,4560
74901000,-3,-6917,-173,146,1966,-9360,-20596,-632,251,-10673,359,79,3359
74949000,361,-6105,58,-98,1649,-10581,-2835,-1731,-945,-9810,480,0,2999
75001000,647,-5236,132,147,1493,-5332,-14798,-2463,2016,-10310,359,1319,1800
75049000,1142,-4989,145,160,2201,-2951,-8450,-1425,6157,-11680,480,3120,1159
75101000,1571,-4184,193,192,2201,527,5159,-2829,4764,-10154,599,3159,799
75149000,2028,-3721,253,169,1516,6020,-8695,-2951,7877,-10531,480,4560,239
75201000,2655,-3412,135,-202,1292,7668,5342,-4111,10154,-10116,480,6040,39
75249000,3050,-2777,-280,-64,957,7607,4610,-3928,16485,-8829,480,8480,-80
75301000,3730,-2587,143,-29,729,16823,-6497,-4782,24207,-7882,359,11800,-39
75349000,4644,-2264,211,-22,1080,21645,13887,-4172,26594,-7290,359,13360,-80
75401000,5598,-2252,-87,152,317,26467,887,-4172,23884,-6876,359,13559,-39
75449000,6491,-2773,221,244,586,26161,5526,-4050,21585,-8206,359,13559,-39
75501000,7114,-2720,106,110,1183,20119,16390,-3623,19216,-8281,480,13520,-39
75549000,7351,-2752,-80,146,1543,18044,6929,-3623,17510,-8322,480,13160,-39
75601000,7481,-2682,173,-99,1326,20058,14376,-2890,8634,-7926,359,10360,39
75649000,7559,-2417,-141,-81,237,14870,15718,-2219,1309,-7309,359,7999,0
75701000,7317,-2633,21,-7,1343,4982,7479,-1120,-4431,-8019,480,5840,-39
75749000,6684,-2826,53,19,650,-3501,18343,-1303,-7578,-8493,480,4279,0
75801000,6015,-2818,85,127,849,-1487,15718,-815,-11205,-8455,480,2279,0
75849000,5670,-3056,-43,139,-95,2663,10530,-754,-13312,-9085,599,1280,0
75901000,5446,-2903,-31,64,1135,4616,19686,344,-13700,-8591,599,880,39
75949000,5245,-2525,-3,61,758,5104,16451,-266,-14021,-7711,480,599,0
76001000,5052,-2478,90,-85,771,3639,12239,-144,-13718,-7434,480,480,0
76049000,4859,-2367,-87,-30,1010,2236,14620,-83,-13238,-7192,480,480,0
76101000,4760,-2210,-133,55,-367,2419,12484,-571,-12841,-6750,359,480,-39
76149000,4676,-2145,55,158,574,-2158,14254,-693,-12787,-6478,599,439,0
76201000,4317,-1938,-55,154,472,-11374,13277,-693,-11512,-5814,599,480,0
76249000,3719,-1944,-71,71,1379,-17600,8333,-1975,-10080,-5790,480,480,0
76301000,3133,-1761,-32,93,1571,-14426,16634,-3867,-7961,-5285,480,480,0
76349000,2921,-1637,-144,87,2201,-8445,13094,-3989,-7484,-4995,480,439,0
76401000,3014,-1600,34,73,-159,-2890,12545,-6064,-8082,-4801,480,320,0
76449000,3189,-1390,11,202,30,-5881,17488,-7529,-8670,-4321,599,280,0
76501000,3217,-1044,-128,219,-435,-12961,20540,-5698,-8931,-3132,599,239,0
76549000,3060,-751,-37,-30,1407,-17844,18770,-4355,-8474,-2381,480,280,0
76601000,2365,-784,279,61,2201,-25901,11873,-3501,-6255,-2472,480,280,-39
76649000,1402,-1154,31,-29,232,-27549,10958,-3317,-3909,-3332,480,239,0
76701000,688,-1423,247,112,580,-21933,16268,-1547,-1466,-4271,359,199,0
76749000,597,-1526,74,103,1278,-9055,16329,710,-1074,-4550,480,199,0
76801000,1003,-1717,79,13,779,343,11873,588,-2411,-5151,599,199,0
76849000,1522,-1946,71,163,1506,5837,11324,1564,-3664,-5727,480,199,0
76901000,1992,-2117,23,109,1801,466,12300,3029,-5378,-6351,480,199,0
76949000,2075,-2153,171,-21,1541,-9299,12423,5227,-5611,-6585,480,199,-39
77001000,1938,-2278,240,62,1764,-8994,8211,6020,-5096,-7075,480,239,-80
77049000,1978,-2699,-21,-100,2105,-22,-2591,5165,-5007,-8302,480,280,-160
77101000,2221,-3270,207,7,972,1259,-1615,6691,-5703,-10412,599,320,-199
77149000,2306,-3331,-48,80,1483,-5088,7357,7546,-5848,-10632,480,360,-199
77201000,2108,-3099,-50,98,345,-11252,3206,7241,-5125,-10138,480,399,-279
77249000,1933,-2675,-148,33,967,-10031,3756,7119,-4640,-9310,599,399,-319
77301000,1966,-2056,316,13,1835,-1426,5648,6874,-5660,-6049,480,79,39
77349000,2156,-1905,37,102,1314,-2097,2596,6142,-6184,-5601,480,79,39
77401000,2098,-2099,-47,22,2201,-7346,-2591,6935,-6054,-6177,599,79,39
77449000,1981,-2148,62,64,1346,-7651,5342,6203,-5635,-5909,480,120,199
77501000,1941,-2055,-140,-66,866,-6186,-638,6264,-5464,-5565,480,120,199
77549000,2038,-2238,-1,133,-72,-6491,-699,5288,-5837,-6162,599,79,160
77601000,2198,-2188,-53,135,2201,-2646,5281,4433,-6355,-6086,599,79,160
77649000,2441,-2257,20,-31,1621,771,-5521,3579,-6859,-6096,480,120,199
77701000,2601,-2451,-89,261,723,-3989,-882,2907,-6963,-6755,599,280,199
77749000,2624,-2095,-37,-28,1724,-4599,-638,2785,-3759,-5999,359,1359,160
77801000,2882,-2134,86,-49,1545,4982,-16019,1809,6712,-6283,480,5120,39
77849000,3304,-2504,263,85,1466,9255,-8145,1870,11873,-7373,599,7200,0
77901000,3893,-2543,91,34,-27,19814,-10404,710,22759,-7510,359,11480,39
77949000,4912,-3040,89,130,863,32143,-19437,283,21403,-8927,359,11879,-39
78001000,5949,-3320,78,125,826,31532,-3446,954,22592,-10080,359,13480,-39
78049000,6628,-2937,134,23,-141,31288,-943,649,21219,-9038,480,13599,-39
78101000,7343,-3123,-169,108,-450,33852,-14005,710,19849,-6970,480,13959,799
78149000,7892,-3305,83,-137,1132,32753,-5887,-571,19833,-5904,480,14440,1319
78201000,8154,-3571,-56,85,445,33852,-16629,222,11775,-6635,359,12080,1359
78249000,8364,-3858,-103,220,789,28298,-16385,1870,8802,-6278,359,11280,1760
78301000,8069,-3629,122,69,608,14992,-6009,2602,6271,-3808,359,10160,2360
78349000,7612,-3474,-177,78,373,16213,-16690,1747,2794,-2358,480,8599,2679
78401000,7374,-3483,71,-27,1016,12551,-14310,1442,2956,-130,480,8360,3440
78449000,7046,-3092,153,199,1793,9987,-8389,588,757,3127,480,7360,4200
78501000,6723,-3222,-29,-143,422,14626,-28714,954,-6731,15172,480,4479,8280
78549000,6366,-3972,5,131,430,5593,-27799,1686,-6533,20375,359,4279,10639
78601000,5607,-4519,304,19,2201,-4355,-29813,2358,-11542,27002,359,1760,13520
78649000,4587,-5313,16,41,1874,-10703,-41776,2114,-9506,30115,359,1600,15200
78701000,3583,-6209,-216,-3,1112,-8628,-40677,2480,-9190,28050,480,520,15559
78749000,3033,-6639,-50,133,-473,-6125,-39639,1381,-9213,26961,480,39,15559
78801000,2645,-7223,-161,205,503,-9909,-42752,2846,-8057,24529,359,-39,15400
78849000,2221,-7418,175,35,1257,-14670,-35062,1747,-6868,22250,480,0,14840
78901000,1824,-7498,-229,95,1282,-12595,-39334,1442,-5472,22024,480,0,14840
78949000,1644,-7607,-301,113,430,-12046,-34329,283,-5122,21713,480,-39,14840
79001000,1606,-7294,-269,230,593,-12839,-28592,283,-4938,22756,359,-39,14879
79049000,1559,-7026,-168,47,1926,-15281,-33780,893,-4864,20814,359,-39,14000
79101000,1353,-6909,373,135,494,-18271,-23221,-22,-4181,7350,599,-39,9360
79149000,1123,-6630,146,-80,922,-17722,-9000,-571,-3459,6289,480,0,8800
79201000,858,-5876,-128,89,800,-21506,-1554,-1425,-2574,8769,480,0,8800
79249000,426,-5106,-121,137,92,-28464,-272,-2097,-1620,10583,599,-39,8759
79301000,0,-4570,46,165,1709,-26694,-3018,-2707,-117,11849,599,-39,8520
79349000,138,-4166,-67,-14,-859,-18332,-4727,-2707,-257,12841,480,-39,8520
79401000,1107,-3760,-77,204,-782,-9787,-4788,-1914,-3442,14279,480,-39,8520
79449000,2361,-3619,-115,73,-993,-6369,-5826,-2463,-6385,15494,359,0,8800
79501000,3795,-3286,147,-128,2041,-8689,-2713,-1486,-11386,20501,480,0,10120
79549000,4159,-3348,9,282,-416,-11985,-6986,-327,-12415,22541,480,0,10840
79601000,4195,-3533,223,30,1866,-18576,-4605,1076,-12585,20839,480,0,10480
79649000,3862,-3720,-123,21,-144,-17051,-4056,161,-7995,18092,359,1240,9719
79701000,3580,-3814,-88,89,255,-14609,-333,1381,-1501,14717,359,3080,8719
79749000,3414,-3558,47,14,1269,-11863,5465,588,3130,15085,359,4479,8640
79801000,3420,-3330,67,-10,968,-3257,948,649,7858,16168,480,6040,8719
79849000,3847,-3349,-115,-66,1105,6325,826,1747,14142,15511,480,8480,8520
79901000,4340,-3298,67,110,1234,9194,3450,2480,17578,16025,240,10200,8640
79949000,4852,-3222,1,79,1246,21889,32,3518,18056,16051,240,10760,8559
80001000,5890,-3361,180,120,671,40627,-4666,3334,15448,15115,240,11040,8400
80049000,6831,-3500,155,169,2157,29518,2169,3701,12535,13341,359,10920,7960
80101000,6879,-3336,94,90,1952,15358,7784,4250,11881,11709,240,10840,7240
80149000,6838,-3309,-62,0,357,26711,3328,2968,11869,11234,359,10760,7040
80201000,7047,-3073,68,203,63,24086,12545,2968,11017,10460,240,10720,6559
80249000,6979,-2948,204,180,-159,15114,9249,2053,11277,10569,119,10760,6480
80301000,6995,-2887,69,201,127,23659,11324,1320,9374,10778,359,10120,6480
80349000,7053,-2804,137,18,80,13710,14681,-388,6956,10954,240,9400,6480
80401000,6969,-2692,272,85,2201,15785,16878,405,6452,11361,359,9119,6480
80449000,7068,-2882,81,-71,1215,19509,6380,344,6085,11240,359,9080,6559
80501000,6866,-3071,363,147,1429,9255,16085,-937,6519,10584,240,9040,6600
80549000,6714,-2965,2,-286,1096,17006,11873,-754,4837,11279,240,8320,6719
80601000,6654,-3108,121,296,1297,15114,10286,-1425,1036,10833,359,7000,6719
80649000,6259,-3047,272,-40,-331,2480,16512,-1120,-955,10733,359,6040,6640
80701000,5822,-3194,-51,-145,902,3273,7540,-1486,-8108,10577,480,3120,6719
80749000,5324,-3528,146,295,1268,-5820,9981,-2402,-16285,10563,599,0,7000
80801000,4564,-3670,203,-25,1447,-17539,11507,-3012,-13813,10108,359,-39,7040
80849000,3785,-3889,323,147,1976,-14853,7418,-2951,-14430,10211,359,-920,7240
80901000,3241,-4249,201,353,1689,-13205,6685,-3317,-21485,11730,359,-3919,8160
80949000,2866,-4415,278,34,428,-17600,12423,-3623,-23463,11830,480,-4880,8360
81001000,2143,-4613,205,245,1260,-32553,6197,-2768,-20710,11358,480,-4759,8400
81049000,1172,-5055,479,184,883,-37436,3878,-3684,-14311,10306,359,-3439,8400
81101000,557,-5208,256,49,1182,-25656,14009,-4111,-1793,4775,359,-39,6800
81149000,636,-5350,13,-107,1838,-12290,10530,-3501,-1733,2750,359,0,6240
81201000,1032,-5202,164,329,1872,-5332,21822,-4050,-3098,-607,359,0,5000
81249000,1438,-4716,5,-75,770,-9543,17916,283,-4339,253,480,-39,4879
81301000,1664,-4629,16,-136,282,-5576,6380,2175,-5113,272,359,-39,4719
81349000,2194,-4627,36,6,1725,7424,23043,-754,-6078,-1427,359,39,4200
81401000,3002,-3810,-25,-73,2201,11940,34822,1320,-8886,807,480,39,4080
81449000,3607,-3701,163,21,321,11879,14132,832,-10535,397,480,0,3759
81501000,3958,-4359,423,104,1742,7546,11263,222,-11755,-2399,359,39,3559
81549000,3867,-4448,321,-15,1635,-3440,29146,161,-11607,-2810,359,39,3559
81601000,3594,-4070,259,11,604,-1792,29634,1381,-10664,-932,480,39,3759
81649000,3427,-4193,386,22,717,3395,22127,710,-10097,-145,359,79,4080
81701000,3331,-4613,35,30,527,2358,19625,-998,-9875,-2799,480,39,3680
81749000,3275,-5418,202,128,549,-2707,16024,-1547,-9931,-9721,599,-39,2000
81801000,3148,-6278,300,45,872,-10337,15413,-3562,-9565,-18714,480,-39,39
81849000,3076,-6736,196,140,1322,-7651,24935,-3378,-9320,-19956,599,-39,39
81901000,2925,-6351,396,-81,1563,-14670,46419,-3867,-10217,-21453,480,-479,-800
