time_ms,imu_roll,imu_pitch,ax,ay,az,gx,gy,gz,Setpoint_rollRate,"set_pitchRate,",Setpoint_yawRate,Setpoint_roll,Setpoint_pitch
101000,1554,-1474,40,145,761,-5942,1619,-998,-4782,-4304,480,-39,39
149000,2033,-1969,60,106,973,-7102,1497,-1120,-6067,-5718,480,0,0
201000,2449,-2389,51,81,863,-510,32,-2219,-7348,-7048,480,0,39
249000,2743,-2669,61,36,1045,-449,704,-1792,-8110,-7915,240,0,0
301000,2998,-2901,74,152,872,-937,-1004,-3195,-8996,-8585,240,0,39
349000,3236,-3064,86,-21,771,-510,154,4677,-9726,-9022,599,-39,39
401000,3441,-3116,-33,208,1184,3884,-28,-1242,-10443,-9348,599,-39,0
449000,3543,-3246,13,163,861,771,-1309,2419,-10754,-9521,599,-39,39
501000,3660,-3276,329,-162,808,1503,-211,-7102,-11100,-9708,599,-39,39
549000,3748,-3289,276,214,662,588,-1248,-3745,-11186,-9689,480,0,39
601000,3792,-3388,-24,403,674,221,-394,-8017,-11378,-10166,480,0,0
649000,3810,-3421,-63,-246,1113,-1487,1558,-22,-11588,-10118,599,-39,39
701000,3807,-3423,4,63,858,282,-394,6020,-11543,-10149,599,-39,39
749000,3785,-3467,-48,223,785,-22,2108,2297,-11478,-10338,599,-39,39
801000,3776,-3428,60,144,839,1564,-699,-3989,-11449,-10166,599,-39,39
849000,3813,-3475,181,-246,887,954,-1248,-4416,-11416,-10408,480,0,0
901000,3811,-3405,166,312,995,-22,887,-22,-11435,-10217,480,0,0
949000,3786,-3447,238,-112,1221,-3440,-1431,-2768,-11537,-10274,599,-39,0
1001000,3789,-3452,231,-385,1140,1015,-1309,527,-11489,-10356,599,-39,0
1049000,3751,-3431,158,-89,1029,-144,2230,-6491,-11354,-10252,599,-39,39
1101000,3711,-3415,89,-25,622,-449,154,-1364,-11254,-10127,599,-39,39
1149000,3691,-3506,12,174,1013,2541,3389,710,-11082,-10534,480,0,0
1201000,3687,-3421,-22,41,688,1991,1375,-2951,-11063,-10145,480,0,39
1249000,3626,-3636,14,-72,633,3029,-760,1381,-10957,-10871,599,-39,0
1301000,3573,-3476,243,-47,2015,-22,2352,-144,-10840,-10308,599,-39,39
1349000,3433,-3720,2,22,468,1015,1192,-998,-10473,-10950,599,-39,39
1401000,3395,-3547,99,-90,496,2297,9188,-83,-10305,-10521,599,-39,39
1449000,3295,-3848,301,95,1127,-1731,216,832,-9930,-11420,480,0,0
1501000,3303,-3162,140,247,487,-3867,30245,3273,-9911,-9486,480,0,0
1549000,3101,-2450,-33,-25,1304,-6491,15963,2907,-9566,-7430,599,-39,39
1601000,2557,-1989,-31,266,880,-13449,17488,2541,-7793,-5969,599,-39,0
1649000,1940,-1497,-77,47,768,-12839,15535,3456,-6184,-4622,599,-39,39
1701000,1581,-1034,209,-120,1500,-6308,9371,3762,-4865,-2623,599,-39,160
1749000,1587,-902,133,49,933,-144,4915,3884,-4719,-554,480,0,720
1801000,1803,-806,-47,-85,999,-1914,2291,3090,-5411,2141,480,0,1519
1849000,1813,-952,286,-105,1340,-3806,277,4555,-5550,2238,599,-39,1679
1901000,1890,-887,151,-6,1367,-2158,2596,4006,-5792,3937,480,-39,2200
1949000,2184,-840,-161,-98,2201,3090,2352,3151,-6446,4888,599,-39,2479
2001000,2438,-717,36,-48,704,-510,3389,2663,-7436,5526,599,-39,2560
2049000,2372,-795,146,106,1326,-4966,-4056,4311,-7205,5278,359,0,2520
2101000,2186,-882,24,154,1319,-11008,2535,1625,-6558,4793,480,0,2479
2149000,2109,-1091,-24,62,1664,-2036,-4361,1137,-6421,4371,599,-39,2479
2201000,2058,-1561,98,127,109,-3623,-1676,1198,-6296,2754,0,-39,2479
2249000,1953,-1846,65,11,471,-4721,-577,2907,-6014,2308,599,-39,2560
2301000,1924,-2337,73,-27,741,-2097,-6314,1870,-5894,1027,480,-39,2679
2349000,1940,-2630,-29,171,2150,-3806,1741,2846,-5865,114,480,0,2639
2401000,1813,-2731,-2,-24,9,-2463,-333,2785,-5440,-273,0,0,2639
2449000,1768,-2947,-119,-132,1244,-2463,-2530,1870,-5456,-826,599,-39,2639
2501000,1634,-3025,110,6,2201,-3135,3450,1625,-5022,-1755,480,-39,2439
2549000,1543,-3127,-21,-24,1123,-1303,-3018,1137,-4726,-2345,599,-39,2320
2601000,1574,-3258,56,128,1196,-876,216,1198,-4844,-4855,359,-39,1640
2649000,1742,-3104,-86,118,1600,1503,3389,1625,-5117,-9545,480,0,-39
2701000,1794,-3088,90,137,2046,-388,3084,1381,-5382,-9264,480,0,0
2749000,1732,-2980,99,213,1560,-754,7540,2419,-5352,-9044,599,-39,0
2801000,1619,-2775,299,21,2201,-754,5526,2297,-4979,-8325,599,-39,0
2849000,1614,-2643,98,54,772,2297,5770,2114,-4933,-7881,599,-39,39
2901000,1770,-2473,155,98,597,1503,5220,2358,-5431,-7299,119,-39,39
2949000,1983,-2422,318,-58,1979,3456,1986,3090,-5839,-7298,480,0,0
3001000,2083,-2454,-109,-187,1563,6386,277,9316,-6250,-7363,480,0,0
3049000,2796,-2801,-490,-308,1199,33669,-16690,11452,-7945,-8151,720,-39,0
3101000,4766,-3937,244,-79,1775,71877,-41959,11269,-14419,-11693,599,-39,39
3149000,7543,-5682,268,-17,1633,102211,-64176,11025,-21260,-16007,599,-39,39
3201000,11063,-7987,359,-139,1937,119362,-76810,11452,-33311,-23841,480,-39,39
3249000,13771,-9733,56,-23,1969,113075,-70340,12185,-40198,-28501,480,0,0
3301000,15589,-10835,294,-59,2201,100929,-60391,12734,-46769,-32506,480,0,0
3349000,16606,-11429,353,81,1702,95680,-56546,12795,-49498,-34132,599,-39,0
3401000,17204,-11636,-64,-88,1742,85793,-50076,13283,-51732,-34910,599,-39,0
3449000,17217,-11447,-259,-185,2126,77675,-44827,13832,-51826,-34382,480,-39,39
3501000,16991,-11143,4,36,1815,71510,-37564,14199,-51095,-33309,599,-39,39
3549000,16235,-10216,-162,86,1913,44594,-5521,13649,-49320,-31391,359,0,0
3601000,13513,-7509,-2,396,308,-17478,37081,6203,-40540,-22527,480,0,0
3649000,9225,-4211,-265,335,510,-67160,60030,3395,-40966,-15077,599,-3680,-240
3701000,4331,-667,140,135,599,-98777,73030,-1181,-38795,-4763,720,-8600,-920
3749000,179,2032,-11,96,42,-111594,76021,-2768,-33037,-1346,720,-10160,-2079
3801000,-3570,4081,44,86,450,-113181,68514,-4233,-19768,10685,720,-10160,-520
3849000,-6007,4962,-31,-15,505,-106101,51119,-4416,-13469,13205,599,-10160,-479
3901000,-7593,4803,23,71,153,-95847,28414,-5515,-7700,14171,480,-10160,-80
3949000,-7997,3908,-35,-73,370,-75827,8883,-3256,-11986,10251,599,-12000,-679
4001000,-7537,2492,120,176,493,-63376,-150,-5393,-14347,5678,720,-12320,-599
4049000,-6659,1210,25,70,606,-56479,-1370,-83,-16030,2579,720,-12160,-559
4101000,-5594,113,-12,86,607,-59592,2779,-144,-19697,-380,720,-12160,-240
4149000,-5011,-598,171,53,959,-66489,10530,-876,-21146,-1998,599,-12120,-160
4201000,-4973,-942,13,-13,725,-70273,16207,710,-21318,-3067,599,-12080,-80
4249000,-5331,-1014,105,2,488,-77048,16451,-1914,-16246,-3227,720,-10680,-80
4301000,-5789,-1203,-17,29,684,-86692,6319,-754,-13830,-3849,720,-10400,-80
4349000,-6337,-1667,-12,26,258,-82602,-3446,-1242,-10590,-4716,720,-9759,0
4401000,-6746,-2118,45,-53,449,-76499,5587,-22,-5919,-6475,720,-8719,-39
4449000,-6660,-1899,148,-36,917,-63681,20113,-1364,-3202,-6153,599,-7760,-80
4501000,-6272,-2041,121,73,648,-55320,5037,1931,1056,-6363,2160,-5920,-80
4549000,-5602,-1957,145,-21,254,-46103,22249,832,2226,-6199,2279,-5000,-39
4601000,-5080,-1330,130,42,1485,-55564,29879,1931,7440,-4232,599,-2600,-80
4649000,-4669,-599,154,-55,231,-31394,35128,-3439,11354,-2302,720,-1039,-39
4701000,-2821,23,-75,130,626,18715,28475,-5820,8345,-48,599,-39,-39
4749000,-576,531,-54,128,1012,27321,29268,-4355,2724,1188,-239,0,-39
4801000,1164,920,-110,-77,1062,15053,16024,-5332,-3493,2642,-119,0,-39
4849000,1764,185,290,134,327,4738,-6375,-5026,-5069,1054,-360,0,0
4901000,2215,-586,237,123,1595,17861,5892,-12656,13034,-2118,599,6559,-119
4949000,3242,-1115,-50,-99,1363,42397,-12052,-15219,10919,-2912,480,6640,0
5001000,5105,-1689,58,-108,1769,58510,6624,-17356,4482,-4949,480,6600,39
5049000,6460,-1244,141,357,1558,47524,7357,-18088,103,-3839,480,6319,0
5101000,6735,-1756,103,365,1047,19447,3389,-12534,-1727,-5149,480,6159,39
5149000,6324,-645,-69,-194,1276,17861,48067,-8139,-848,-2788,480,6120,0
5201000,6169,384,-17,-186,807,29213,6075,-9787,-4948,1032,480,4519,-39
5249000,5899,-280,-92,121,1491,19020,4305,-7224,-11541,-737,480,2119,0
5301000,5447,96,-37,25,1432,12245,17366,-6369,-13943,409,-360,799,39
5349000,4756,-441,260,311,1301,6935,-5887,-2402,-12119,-925,0,840,0
5401000,4109,-968,108,-93,1224,10109,11324,-2341,-4889,-2785,-360,2479,39
5449000,4001,-587,191,-44,884,16335,20113,-2280,3104,-1803,480,5039,39
5501000,4201,-804,74,-34,525,25307,1009,-937,9234,-2293,480,7279,39
5549000,4668,-1060,218,-87,2201,34096,11873,466,13536,-3082,480,9080,39
5601000,5151,-1047,-57,0,1487,34767,3756,832,15266,-2663,480,10240,160
5649000,5658,-1298,182,-134,1103,38063,887,3395,13710,-1661,480,10160,720
5701000,5951,-1239,-179,-18,714,35866,5220,3151,12505,242,240,10120,1319
5749000,6046,-1417,-82,-333,1301,30739,-3690,3884,8971,-256,599,9040,1280
5801000,5935,-1466,-140,-195,1454,30861,3328,4494,8472,-79,599,8759,1440
5849000,5783,-1585,-210,77,2201,26955,-5826,4799,6457,156,359,7960,1600
5901000,5619,-1767,11,114,1035,27809,-3995,5898,6302,2136,480,7720,2479
5949000,5591,-1749,-159,68,1886,25795,-9427,4433,6329,3852,480,7720,2999
6001000,5155,-1978,61,63,205,16640,-13577,5349,7214,5344,359,7560,3759
6049000,4725,-1965,-9,-34,727,15541,-5094,4982,6318,5898,599,6879,3959
6101000,4691,-1729,80,110,789,20912,-8023,4860,3925,7530,480,5999,4240
6149000,4722,-2179,-316,-114,1106,18654,-20963,3701,3428,6417,480,5880,4200
6201000,4232,-2434,223,58,1163,9560,-11258,4067,982,6617,480,4560,4640
6249000,3687,-2401,-397,75,1449,13161,-11075,3334,1793,6931,480,4360,4719
6301000,3421,-2605,-33,24,2201,17739,-19315,1320,2694,6944,599,4319,4920
6349000,3416,-2919,-194,-57,279,19020,-14493,1137,2333,7841,599,4200,5520
6401000,3472,-2753,-44,-76,357,17433,-12723,588,2183,8779,599,4200,5680
6449000,3304,-2975,103,79,168,6020,-19132,2907,2644,8154,480,4240,5639
6501000,2720,-3195,87,59,-375,38,-11197,4799,4557,7334,480,4240,5639
6549000,2137,-3048,82,98,2184,-327,-14188,1320,5935,7638,599,4200,5599
6601000,1745,-3282,181,-31,564,3456,-20291,3395,7362,6952,480,4200,5599
6649000,1678,-3323,-331,125,659,7179,-13699,1381,7227,6612,599,4080,5560
6701000,1718,-3295,-48,32,1267,4311,-21207,-449,1924,6913,480,2360,5599
6749000,1627,-3577,-69,-8,1550,-1731,-24503,771,1771,6403,480,2239,5680
6801000,1303,-3594,-93,64,922,-8567,-16507,-2829,1249,7217,480,1719,5999
6849000,1007,-3509,-86,74,669,-9360,-21024,-3378,1911,7449,599,1679,5999
6901000,978,-3687,60,-83,1062,-6675,-25662,-3195,2943,6936,480,1960,5999
6949000,902,-3571,61,200,1445,-9482,-13333,-2158,3831,7138,480,2200,5999
7001000,781,-3131,-56,121,1197,-15525,-16568,-2585,4496,8484,480,2279,5959
7049000,631,-2987,199,164,343,-12534,-22244,-4050,5630,8654,359,2520,5880
7101000,739,-3043,35,-31,1177,-6247,-19437,-4477,7261,6710,480,3159,5280
7149000,1109,-2709,103,49,1685,1808,-9427,-3806,9589,6199,480,4240,4839
7201000,1416,-2503,-49,240,453,3212,-11868,-3745,10151,5689,599,4800,4400
7249000,1754,-2553,51,-102,401,4067,-9976,-4538,12276,4264,480,5799,4000
7301000,1998,-2442,316,65,1740,4982,-8084,-4538,14405,3471,4807401000,2018,-2335
7449000,1664,-2212,3,-156,1924,-7590,-5521,-2158,15941,1408,599,7040,2679
7501000,1535,-2100,-56,141,516,3273,-2408,-1242,16513,1738,480,7040,2679
7549000,1759,-2101,-84,-175,1142,15785,-8573,-2158,15941,1722,480,7000,2679
7601000,2597,-1799,61,6,1125,29518,2535,-1853,13328,2642,480,7040,2679
7649000,3480,-1551,182,125,1529,22316,-3690,-1486,10820,3381,480,7000,2679
7701000,3390,-1581,74,178,93,-1303,-4178,588,10828,3416,480,7000,2720
7749000,2551,-1600,-54,-1,1437,-6614,-3812,-144,12948,3222,599,7000,2679
7801000,2213,-1413,-156,-187,938,2358,-2713,39,14480,2358,480,7040,2200
7849000,2082,-1221,-58,136,-29,-388,-699,4128,12182,-1273,480,6159,840
7901000,2351,-720,-55,-167,1043,15663,9371,10476,5664,-2160,1799,4240,0
7949000,3844,-343,80,32,2050,65224,4549,11269,-7112,-991,2160,1080,39
8001000,7430,-1055,438,104,2201,116738,-29508,14565,-22410,-3165,1679,-39,0
8049000,11186,-2994,102,260,1629,125099,-61978,18776,-31893,-7692,720,-39,39
8101000,14297,-5544,519,53,2201,112831,-63626,16762,-43011,-16513,720,-39,39
8149000,16172,-6916,190,200,1841,105751,-44400,19326,-47726,-20291,480,0,0
8201000,17359,-7515,373,44,1335,90614,-33353,24758,-52079,-22545,359,0,0
8249000,17613,-7455,203,41,1110,71999,-11014,26772,-53067,-22582,480,-39,0
8301000,16292,-5814,152,390,1341,17922,35372,23354,-49356,-17443,1679,-160,0
8349000,12475,-3145,344,317,1336,-59775,62410,14626,-46683,-10859,6600,-2280,0
8401000,6597,-3,-13,134,1097,-107810,81209,7119,-40193,-3491,6600,-6799,-1160
8449000,1455,2676,26,44,155,-115866,87313,4738,-36750,3570,4680,-10000,-1080
8501000,-2882,4558,-42,130,605,-112143,70894,3884,-36952,13554,3000,-15200,-39
8549000,-5550,4770,-8,95,-121,-105979,39278,2297,-30100,14595,2279,-15240,39
8601000,-7110,3916,176,70,149,-101218,17183,-266,-19109,11630,2279,-13480,-39
8649000,-7717,2693,155,27,1299,-91269,13643,-937,-6194,8722,2160,-9720,0
8701000,-8036,1521,0,47,283,-80222,18465,-2158,15349,4564,599,-2920,0
8749000,-7683,862,-59,95,333,-66428,27559,-2463,14946,2709,599,-2799,-39
8801000,-6467,443,67,108,1855,-39817,30672,-1059,11961,1211,599,-2480,-39
8849000,-5052,78,213,17,2197,-29990,23470,3456,8353,474,720,-2480,0
8901000,-3868,-299,396,59,1776,-25351,29818,2846,4644,-898,-119,-2320,0
8949000,-2877,-71,-128,73,1348,-26755,41658,1442,7326,-515,480,-559,-39
9001000,-2442,314,214,302,1896,-38657,34334,-510,7326,822,480,0,-39
9049000,-2320,313,371,150,1208,-40305,34090,-3073,6816,945,599,-39,0
9101000,-2629,633,171,15,-65,-45615,44710,-2768,7769,1899,599,-39,0
9149000,-2887,912,111,65,579,-43723,42391,-2463,8417,2502,599,-39,-39
9201000,-2787,838,145,151,447,-34385,31404,-3317,8242,2516,599,-39,0
9249000,-2531,435,276,88,898,-31699,25545,-3684,7724,1424,599,0,-39
9301000,-2049,-66,26,136,-168,-16440,26033,-3378,6147,-200,599,0,0
9349000,-1221,-346,86,43,1240,-6369,26888,161,3967,-926,2160,-39,0
9401000,-260,-656,24,-122,231,1259,23226,405,1622,-1850,8400,280,39
9449000,592,-865,179,-60,1430,2236,26522,-4172,2653,-2413,12240,1359,39
9501000,1076,-826,183,31,635,-815,27925,-6980,5651,-2358,14759,2960,39
9549000,1526,-1077,262,126,1197,2968,16146,-8017,9042,-3024,13920,4479,0
9601000,2192,-1484,254,-74,1994,14260,17977,-7102,14541,-1454,6960,7040,999
9649000,3058,-1762,175,31,2201,31166,8150,-2768,12632,1050,6479,7079,2040
9701000,4126,-2420,-146,-136,799,34462,1497,-2890,9219,4139,5399,7200,3800
9749000,4555,-2705,-90,-146,91,20485,3450,-1059,9199,6139,4680,7600,4719
9801000,4767,-3194,189,33,150,32509,-2347,-327,13298,8176,2519,9200,5920
9849000,4983,-3553,-127,-58,61,20607,-1859,1992,14175,7231,2519,9719,5920
9901000,5108,-3723,246,37,2084,25429,-3262,2907,12755,4670,2640,9360,5280
9949000,5261,-3955,401,177,2201,25429,-5887,1992,11411,3766,2760,9040,5160
10001000,5049,-4162,75,-198,2201,19264,-2408,3029,11851,3113,2640,9000,5200
10049000,5151,-4135,194,8,1096,32448,-1492,161,10559,2236,2640,8599,4879
10101000,5458,-4165,27,-187,1455,31716,-4910,222,9065,584,2640,8480,4360
10149000,5743,-4155,46,-58,1095,34645,-3934,-754,7770,8,2640,8280,4159
10201000,5731,-4021,-72,-39,707,20973,-5887,2968,7526,295,2760,8239,4119
10249000,5097,-3920,-55,-51,48,10414,-5460,1809,8716,684,2640,8120,4159
10301000,4583,-3717,149,20,60,14321,-516,1259,10249,1448,2760,7999,4200
10349000,4513,-3335,-3,-60,301,21095,154,2114,10558,3483,2519,8039,4560
10401000,4498,-3223,73,103,465,18349,-16141,-388,10383,5810,1679,7960,5160
10449000,4372,-3657,50,24,469,16701,-21207,2724,10676,6610,599,7960,5799
10501000,4120,-3765,-135,185,660,16152,-16202,3456,11517,7183,480,7960,6159
10549000,4099,-3846,107,-11,692,16518,-24198,3151,11587,7314,599,7960,6280
10601000,4030,-3994,321,38,1428,12978,-18460,3579,11789,7575,599,7960,6519
10649000,4012,-4115,2,50,1399,19814,-22061,4250,12006,7290,599,7999,6519
10701000,3995,-4509,-161,-5,1425,13283,-26456,3029,12013,6391,599,7999,6640
10749000,3883,-4805,-16,43,1101,12978,-24930,4189,12202,5635,480,7960,6640
10801000,3802,-4998,-283,81,182,10781,-24686,4128,12473,4924,480,7960,6640
10849000,3648,-5035,16,-39,676,6874,-18460,4921,12805,4880,480,7960,6680
10901000,3288,-4958,-111,-23,1938,9804,-21817,4799,14134,5045,480,7999,6640
10949000,3420,-5192,-112,-27,1476,18349,-35062,3456,13749,4554,480,7960,6640
11001000,3416,-5439,270,-69,1282,3578,-24381,3395,13511,2762,480,7920,6359
11049000,2756,-5244,-189,-12,613,-5393,-22855,1259,14416,1943,480,7679,5920
11101000,2463,-5377,89,55,952,11879,-40677,222,15409,1386,599,7600,5840
11149000,2862,-5428,110,29,1027,17433,-22122,-2585,14587,615,480,7639,5680
11201000,3389,-4946,215,-289,1126,15114,-20474,-3439,12150,1121,480,7439,5320
11249000,3483,-5159,272,42,1648,9499,-32865,-2951,11373,-1514,599,7279,4600
11301000,3275,-5059,164,61,2201,1381,-13944,-3439,11293,-5337,480,7040,3280
11349000,3011,-4488,405,-43,1048,4067,-15042,-3684,11492,-8733,599,6879,1640
11401000,2851,-4425,-138,-61,880,4433,-19376,-4172,8966,-13155,599,5840,39
11449000,2867,-3917,-92,52,594,7790,2962,-3195,6984,-12197,480,5200,0
11501000,2693,-3007,-32,73,864,2114,-5704,-2524,7519,-8903,480,5200,39
11549000,2458,-3038,-121,-46,1654,-1548,-23709,-1914,7987,-9021,599,5160,0
11601000,2232,-2821,-141,105,506,-4905,-4788,-1914,8783,-8464,599,5160,0
11649000,1940,-2271,-77,-84,1279,-8078,-5277,-2280,9454,-6829,599,5160,39
11701000,1497,-2609,-95,226,1189,-13083,-13455,-2890,10986,-7709,599,5160,39
11749000,985,-2669,-115,62,918,-13022,-760,-2219,12424,-7987,480,5200,39
11801000,690,-2534,300,111,135,-10764,-89,-2585,13409,-7603,480,5160,0
11849000,552,-2698,-29,136,975,-13510,-4117,-2158,13761,-7899,599,5160,39
11901000,580,-2578,-9,-54,1458,-6919,-2896,-1059,13738,-7734,599,5160,0
11949000,695,-2408,-25,171,625,-1792,-4239,-937,13471,-7305,480,5160,0
12001000,994,-2214,-17,47,1021,4372,-1065,588,12495,-6644,480,5160,0
12049000,1267,-1767,-33,-14,1699,2114,8211,-205,11640,-5444,599,5120,39
12101000,1219,-1590,139,-180,693,-5088,-2774,1259,11700,-4770,599,5120,0
12149000,1046,-1617,215,6,2009,-7224,1192,893,12043,-4762,599,5079,39
12201000,1073,-1424,-85,42,1615,-3196,2657,588,12020,-4152,599,5079,39
12249000,1273,-1436,24,-147,938,-4172,-1859,161,11618,-4286,480,5120,0
12301000,1348,-1351,224,-23,1730,-6980,6136,161,11314,-4053,480,5120,0
12349000,1362,-1483,180,45,497,-6003,-28,-1547,9515,-4226,599,4519,39
12401000,1514,-1655,130,214,1361,-8506,3206,-1303,-4663,-4845,599,-39,39
12449000,1491,-1541,179,92,1319,-11863,11202,-754,-4681,-4593,599,-39,39
12501000,1139,-1614,-54,101,722,-18943,3756,-1059,-3537,-4722,599,-39,39
12549000,772,-1507,-51,117,1426,-21201,13521,-571,-2566,-4671,480,-39,0
12601000,547,-1077,-276,111,1360,-16623,12606,-754,-1761,-3111,480,-39,39
12649000,498,-1034,-194,-7,318,-14121,4915,-1486,-1613,-3106,599,-39,0
12701000,443,-842,95,188,1821,-16989,15657,-1547,-1449,-2408,599,-39,39
12749000,434,-468,-33,140,140,-13266,12362,-1547,-1282,-1437,480,0,39
12801000,551,-358,-57,43,1720,-11435,11751,-693,-1654,-1075,480,0,0
12849000,546,-102,-62,-22,1313,-13816,17183,-1486,-1757,-422,599,-39,0
12901000,478,-8,223,85,999,-13083,10530,-1547,-1555,93,599,-39,39
12949000,576,-155,211,171,199,-11802,13765,-1181,-1692,-336,599,0,39
13001000,618,-106,226,110,667,-13388,17366,-815,-175,-318,599,559,0
13049000,704,-111,62,136,204,-9543,14193,-937,7536,-558,480,3199,-80
13101000,1016,-180,-44,-47,755,466,15718,-83,12309,-782,480,5120,-80
13149000,1436,-185,-140,11,815,6935,13521,-693,17558,-787,480,7200,-80
13201000,2143,-268,41,-41,1275,14015,14498,222,15530,-805,480,7320,0
13249000,2822,-338,267,-36,1311,14870,15169,1931,13763,-836,480,7320,39
13301000,3277,-626,-59,113,803,10536,9920,3212,12368,-1878,480,7400,0
13349000,3735,-763,134,-78,1330,13344,11934,3395,11020,-2278,359,7320,0
13401000,4206,-780,248,-10,300,15663,10469,4067,9461,-2341,359,7360,0
13449000,4547,-864,41,180,674,14076,12056,4616,8620,-2562,480,7360,0
13501000,4913,-767,234,-20,206,15602,12117,5043,7699,-2183,480,7479,39
13549000,5161,-835,131,11,526,15602,10225,4860,7860,-2318,359,7760,39
13601000,5284,-897,-37,8,1170,15663,13826,4189,9347,-2572,359,8400,39
13649000,5282,-940,168,1,1663,15541,10469,4006,15930,-2881,599,10599,-39
13701000,5335,-1157,-34,-57,1000,22011,10347,4738,17592,-3592,599,11199,-39
13749000,5625,-1107,353,70,-15,26283,14620,4555,19310,-3523,480,12000,-39
13801000,6091,-1048,142,210,528,25917,11202,4921,17365,-3264,480,11879,-39
13849000,6243,-1051,20,91,1745,17250,10591,4799,16789,-3185,480,11840,0
13901000,6133,-1046,234,108,2201,13649,11690,4555,15678,-3139,359,11359,0
13949000,5953,-1180,248,81,1902,16701,7418,3701,9534,-3458,599,9159,0
14001000,5694,-1358,77,122,678,9926,9249,3579,10155,-4195,480,9080,-39
14049000,5391,-1347,99,150,1730,8949,8699,4921,10904,-3791,480,9080,79
14101000,5034,-1496,286,111,342,6386,7051,4311,10937,-4250,599,8680,79
14149000,4876,-1517,185,187,1336,10536,7784,5593,3568,-4556,720,6080,0
14201000,4774,-1605,114,53,1856,7057,7051,5288,3555,-4817,599,5959,0
14249000,4519,-1670,201,102,2184,1198,7784,6447,4015,-5014,599,5920,0
14301000,4022,-1762,80,41,1922,-1059,8760,6264,6293,-5287,599,6120,0
14349000,3755,-1752,-74,172,1191,1564,8638,7119,6920,-5262,480,6080,0
14401000,3551,-1821,103,-59,876,-1364,5220,6752,7466,-5463,480,6040,0
14449000,3289,-1893,29,126,962,-3928,6319,7180,8110,-5676,599,6040,0
14501000,2903,-1902,177,69,877,-9482,6868,6997,9408,-5826,599,6040,-39
14549000,2551,-1929,96,99,1023,-9726,4671,7058,10293,-5783,599,6040,0
14601000,2201,-1847,119,41,376,-11679,7723,4799,11515,-5542,599,6040,0
14649000,2079,-1794,-4,176,528,-5515,5404,4921,11926,-5374,599,6040,0
14701000,2236,-1823,38,99,597,160,5770,3151,11409,-5590,599,6040,-39
14749000,2263,-1656,-46,201,1568,-6369,5770,1809,11156,-5058,720,5999,0
14801000,2160,-1440,-76,-41,974,-9482,460,-1425,-3361,-3000,720,1040,439
14849000,2180,-1293,59,248,659,-11374,-2835,-1547,-6543,-1487,599,0,799
14901000,2112,-1481,-151,12,287,-19431,-8389,-2768,-6338,2754,599,0,2400
14949000,2000,-1559,139,107,182,-23764,-11502,-4599,-6079,4110,720,0,2920
15001000,1930,-1758,-76,182,971,-20285,-16141,-4233,-5672,5644,720,39,3640
15049000,1991,-1939,-149,6,1147,-18210,-16263,-4355,-5866,5294,720,39,3680
15101000,1838,-2159,48,214,1355,-21689,-17484,-4660,-5395,4680,720,39,3719
15149000,1614,-2441,120,26,1698,-20346,-17179,-4782,-4829,4079,599,39,3759
15201000,1301,-2666,-59,14,1085,-18454,-14798,-5026,-3904,3520,599,0,3840
15249000,1122,-2796,-8,187,679,-15525,-13761,-4599,-3265,6989,720,39,5120
15301000,1255,-2943,-108,2,716,-13205,-18765,-4538,-646,7970,720,1040,5599
15349000,1218,-3174,234,268,1954,-17051,-22000,-4050,-365,7538,720,1119,5639
15401000,1221,-3310,-27,126,928,-15586,-18216,-3623,2336,4348,480,2000,4760
15449000,1411,-3283,71,-134,1414,-12046,-20719,-3623,4705,239,720,2960,3359
15501000,1559,-3286,54,-13,1016,-8872,-14920,-3256,10920,-2780,599,5200,2360
15549000,1899,-3105,-217,-60,374,-266,-15286,-3073,13290,-2561,-119,6240,2279
15601000,2556,-2975,-243,31,474,3761,-16324,-2341,13449,-1965,-360,7040,2320
15649000,3011,-2829,-143,147,2201,3884,-11685,-2158,12262,-1662,480,7040,2320
15701000,3198,-2797,176,142,1776,3639,-14066,-2158,12484,-473,599,7360,2639
15749000,3272,-2921,12,9,1789,2541,-13516,-1975,12391,46,720,7400,2920
15801000,3180,-2945,118,-34,1273,-449,-11258,-1853,12778,1723,0,7439,3520
15849000,3086,-2990,-37,234,1349,343,-10037,-3073,13281,3060,599,7520,4000
15901000,3146,-3053,150,9,815,3151,-14127,-3745,14441,4038,959,7960,4400
15949000,3310,-3227,-239,168,1403,4677,-16080,-5698,16427,5058,1799,8759,4879
16001000,3558,-3292,57,26,1290,6691,-13028,-6674,17885,6561,1679,9519,5480
16049000,3878,-3311,-77,57,738,9010,-16812,-4721,17928,6545,1799,9800,5480
16101000,4190,-3601,69,0,998,9255,-19498,-4660,18267,6836,1679,10280,5880
16149000,4328,-3865,-130,177,-572,8095,-17728,-3989,18134,6029,1320,10360,5840
16201000,4571,-3994,-18,-35,1203,10536,-17056,-3317,18444,5537,599,10720,5840
16249000,4775,-4112,-85,84,797,12428,-16446,-3134,18057,4846,599,10760,5720
16301000,5060,-4141,-53,32,2201,13771,-13638,-3439,18658,1976,480,11280,4800
16349000,5480,-4029,33,39,976,21584,-8878,-2524,19444,-303,480,11879,3959
16401000,5991,-3802,64,139,93,19570,-8328,-2524,19945,-2768,480,12639,2880
16449000,6175,-3610,35,35,743,9010,-2530,-3684,19364,-2427,480,12639,2839
16501000,5832,-3164,65,-94,722,1625,3633,-4294,20422,-974,480,12639,2839
16549000,5792,-2974,78,251,365,12978,-6986,-5087,20751,-267,599,12679,2880
16601000,6048,-2925,24,141,1313,11452,1253,-4904,19773,-736,599,12639,2679
16649000,5904,-2561,273,-73,1865,4860,1009,-5332,19939,-633,480,12600,2400
16701000,5522,-2437,78,205,2201,343,-3751,-6552,21233,-112,480,12600,2400
16749000,5078,-2276,-34,-150,2201,-2524,8333,-6613,22238,178,599,12560,2400
16801000,4752,-2047,13,-29,-248,466,643,-7407,23541,1056,599,12600,2400
16849000,4606,-2341,62,-32,304,-937,-4422,-7590,23958,435,480,12600,2439
16901000,4375,-2265,146,127,651,-3562,8821,-9726,24794,522,480,12639,2439
16949000,4315,-2049,-99,166,-88,-998,4610,-10153,24557,1066,480,12480,2439
17001000,4209,-1458,-376,100,1157,-4905,23165,-11984,23372,2943,480,12000,2439
17049000,4025,-479,-32,125,729,-2219,15963,-12961,23733,5569,599,11960,2439
17101000,4163,-419,130,140,998,3334,2291,-13388,23148,5822,599,11879,2360
17149000,4241,-242,-88,-69,1661,4555,17244,-14548,22427,6262,480,11719,2400
17201000,4411,-146,-81,4,1010,9621,1192,-13815,21326,6280,480,11519,2239
17249000,4650,-486,356,315,2201,11696,8150,-13999,20140,5186,480,11320,2200
17301000,4845,-200,-200,51,-165,7424,12423,-11618,17744,5879,599,10760,2160
17349000,5045,-478,-26,-44,1488,9010,-5948,-12534,16505,5453,599,10520,2200
17401000,5188,-596,22,-84,832,7363,14498,-13205,13355,4690,480,9639,2160
17449000,5417,-452,73,190,2034,13100,-2713,-10886,10723,4714,359,8920,2000
17501000,5687,-951,54,251,135,5531,-2286,-9604,9097,2544,0,8719,1800
17549000,5520,-659,-115,249,1185,-1548,16146,-9726,9627,2981,480,8759,1719
17601000,5321,-889,35,170,297,3578,-10648,-9238,10194,2370,-360,8719,1679
17649000,5162,-1248,107,101,587,-3073,8455,-8994,10387,1294,480,8680,1679
17701000,5084,-1154,-54,127,455,2907,887,-8566,10787,856,-119,8680,1440
17749000,5292,-1553,76,56,795,5287,-3751,-7651,8293,-446,599,8039,1359
17801000,5306,-1192,151,42,431,954,14986,-6857,5081,621,599,7000,1400
17849000,5194,-1075,-89,46,602,-388,-1615,-6735,4877,1086,599,6840,1400
17901000,5066,-1289,48,4,2113,-2463,6929,-7102,5321,330,599,6840,1400
17949000,5126,-1065,98,-16,1480,2785,8211,-5454,5197,1036,480,6840,1440
18001000,5278,-1362,170,28,978,4921,-5399,-5332,4564,112,480,6800,1400
18049000,5376,-1433,115,253,635,2907,8821,-4599,4445,-209,599,6840,1400
18101000,5543,-1354,89,10,859,3334,-3201,-4904,3888,257,599,6840,1440
18149000,5605,-1690,11,178,506,-2402,-3018,-5332,3569,-578,599,6800,1480
18201000,5466,-1262,25,-36,1297,-9055,15291,-6552,4000,652,720,6800,1480
18249000,5134,-753,-153,-90,-636,-11008,10469,-7468,4839,2477,720,6800,1640
18301000,4773,-878,216,64,1275,-11802,-2347,-6552,6198,2645,480,6840,1760
18349000,4416,-1469,37,180,1648,-5698,-2164,-3928,7152,1229,480,6840,1800
18401000,4215,-1860,-41,207,847,-1303,277,-3867,7873,57,599,6840,1879
18449000,4185,-2160,-105,250,315,-4111,-2835,-2463,7473,-776,480,6680,1840
18501000,4184,-2528,-144,132,1063,-4477,-2042,-2707,5567,-2064,480,6040,1840
18549000,4244,-2667,152,43,368,-7956,2047,-3745,5307,-2436,599,5999,1840
18601000,4341,-2719,33,87,944,-7163,-943,-2646,1374,-2637,599,4800,1840
18649000,4323,-2708,122,-152,209,-10459,1802,-3256,435,-2519,599,4479,1879
18701000,4062,-2551,113,175,791,-17112,5220,-2524,1012,-2015,599,4400,1879
18749000,3611,-2449,15,198,200,-21933,521,-2158,940,-1822,480,4000,1840
18801000,3239,-2507,-10,147,-5,-19614,4854,-1181,-2637,156,599,2360,2560
18849000,3058,-2057,-108,202,788,-20346,11507,-144,-2681,1282,599,2200,2560
18901000,3184,-2012,72,-76,2015,-12595,-3690,527,-5712,1283,599,1280,2439
18949000,3367,-2199,65,164,888,-12595,3817,-449,-6412,-966,480,1199,1879
19001000,3385,-2057,-82,65,1803,-13877,5831,-327,-6555,-2332,480,1199,1280
19049000,3372,-1993,119,173,544,-19004,6258,-754,-6187,-2166,599,1319,1280
19101000,3485,-1892,-117,190,-92,-18210,9005,649,-6496,-3037,599,1319,880
19149000,3689,-1785,130,35,1659,-12168,11751,222,-7137,-4085,599,1280,439
19201000,3922,-1807,-32,351,-227,-11679,8577,893,-6967,-5302,599,1600,39
19249000,4269,-1826,325,10,2051,-16623,12789,527,-7595,-5545,480,1679,0
19301000,4393,-1636,-52,97,568,-14121,15413,527,-8020,-4790,599,1719,39
19349000,4521,-1561,259,242,146,-9665,8944,710,-8195,-4547,599,1760,39
19401000,4818,-1674,108,142,1073,-7468,11568,1076,-9174,-4903,599,1760,39
19449000,4920,-1564,256,133,2201,-11557,16512,893,-9866,-4666,480,1640,39
19501000,4669,-1563,-89,0,1117,-13938,12239,344,-9447,-4691,480,1519,0
19549000,4562,-1640,-126,-2,1217,-12656,10408,-22,-8890,-5044,599,1600,-39
19601000,4851,-1615,-97,38,562,-4660,8821,-22,-10473,-4966,599,1359,-39
19649000,5251,-1749,140,114,1022,-2890,8944,-388,-11774,-5141,599,1280,0
19701000,5225,-2014,16,221,951,-10154,7357,893,-11957,-6042,599,1240,0
19749000,4941,-2211,-25,6,102,-11435,8577,161,-11828,-6669,480,1040,-39
19801000,4730,-2490,40,186,1755,-11374,3695,771,-11190,-7590,599,999,-39
19849000,4442,-2762,10,-26,2015,-10520,1925,222,-10436,-8174,599,999,0
19901000,4233,-2732,143,138,2184,-6736,6929,-998,-9940,-8197,599,920,0
19949000,4264,-2595,47,108,1105,-1609,4671,344,-9980,-7854,480,920,0
20001000,4425,-2402,149,192,385,-3012,8211,-571,-9917,-7208,480,1119,0
20049000,4425,-2297,18,-60,1333,-4111,1741,527,-9471,-6848,599,1280,0
20101000,4317,-2415,-70,-86,678,-3196,-211,-144,-9231,-7367,599,1240,-39
20149000,4174,-2345,103,149,707,-4050,4244,39,-9336,-7126,599,1080,0
20201000,4035,-2378,-124,109,424,-1303,-516,-1303,-8866,-7134,599,1080,0
20249000,3850,-2359,-56,122,1980,-2585,948,-1181,-8384,-7214,480,1080,-39
20301000,3749,-2393,87,83,736,1442,-4666,-2036,-8007,-7181,599,1080,0
20349000,3830,-2445,-62,27,691,5898,-1798,-2585,-8180,-7363,599,1080,0
20401000,4002,-2529,279,131,1653,10414,-6864,-1853,-8167,-7589,599,1280,0
20449000,4203,-2861,-45,-23,895,9194,-9366,-632,-8462,-8298,480,1359,39
20501000,4254,-2995,-60,59,757,8461,-3751,-815,-8563,-8866,480,1400,39
20549000,4384,-2929,2,142,679,9072,-3995,-22,-8853,-8820,599,1400,0
20601000,4589,-2659,-17,20,982,8766,-3629,771,-9687,-7977,599,1359,0
20649000,4669,-2130,-1,2,536,7790,-2469,1015,-9913,-6701,599,1359,0
20701000,4596,-1577,-95,93,1614,4067,-1798,2114,-11148,-4731,599,880,0
20749000,4441,-1428,103,44,1313,3029,-4910,893,-11606,-4399,480,599,-39
20801000,4317,-1567,193,-57,959,2114,-5582,1503,-12832,-4823,599,39,-39
20849000,4213,-1504,-58,10,825,1137,-3324,649,-12534,-4614,599,39,0
20901000,4168,-1261,-42,42,599,1320,-7779,893,-12385,-3783,599,39,0
20949000,4116,-1247,22,-30,1602,466,-9915,1747,-12159,-3697,480,79,0
21001000,4154,-1234,-30,81,628,1442,-6986,283,-11624,-3704,480,280,0
21049000,4418,-1281,323,88,1593,5531,-11746,832,-12182,-3690,599,320,0
21101000,4605,-1671,-35,45,849,8461,-12052,527,-11176,-4295,599,880,239
21149000,4807,-1679,-40,108,390,6508,-6009,100,-11484,-3430,599,959,559
21201000,4822,-1766,-191,66,1355,7179,-15958,1564,-10747,-3140,480,1240,720
21249000,4779,-2179,6,16,2038,5348,-17545,-266,-10546,-4168,599,1280,720
21301000,4649,-2215,55,-141,494,2419,-9061,-388,-8907,-4005,599,1679,880
21349000,4444,-2343,-36,127,890,5959,-18949,-1120,-7367,-4014,599,2000,959
21401000,4622,-2508,-83,24,1478,12245,-12357,-937,-6788,-4165,599,2360,1119
21449000,4732,-2300,-362,27,1518,9621,-11014,-1486,-7098,-2871,480,2360,1359
21501000,4603,-2306,-112,30,845,7179,-19620,-876,-6369,-2239,480,2479,1559
21549000,4421,-2314,-149,51,1202,4677,-13699,-632,-4970,-2250,599,2799,1600
21601000,4332,-1951,34,186,838,10536,-11685,-2768,-3996,-693,599,2999,1719
21649000,4446,-1943,236,-81,715,12428,-20535,-1608,-4401,-591,599,2960,1719
21701000,4509,-2049,-141,98,767,9072,-12052,-1731,-4169,-987,480,3120,1719
21749000,4556,-1709,13,-28,-156,9621,-11319,-2036,-4277,-281,599,3120,1679
21801000,4551,-1571,-6,-43,1126,8034,-15714,-1242,-4414,86,599,3080,1600
21849000,4451,-1430,-13,-50,921,5837,-9549,-2341,-4410,-370,599,2999,1359
21901000,4381,-1019,3,-38,1646,6142,-10037,-2646,-4145,422,599,2999,1159
21949000,4269,-932,8,244,1165,4067,-12235,-2524,-4025,476,480,2960,1080
22001000,4113,-873,93,-31,566,6630,-5521,-2646,498,619,480,4279,1080
22049000,4395,-743,41,81,965,22804,-10587,-3745,5315,673,599,6080,959
22101000,5126,-773,-18,-16,1545,30495,-9000,-4233,6101,-2321,599,7160,0
22149000,5661,-626,-73,-22,1406,28176,-2835,-4904,6398,-1945,480,7720,0
22201000,6179,-649,90,63,980,30617,-6497,-5759,6542,-1949,480,8360,0
22249000,6547,-928,229,-89,1637,24025,-10770,-6003,7528,-2648,599,9040,0
22301000,6496,-1155,-232,-12,-279,14076,-4971,-6491,12551,-3466,599,10680,0
22349000,6329,-983,142,-17,955,14443,-516,-5210,13107,-3044,599,10720,0
22401000,6254,-821,49,27,1431,19142,-3629,-5454,13397,-2464,599,10720,0
22449000,6359,-794,-65,85,651,24452,1131,-5393,13091,-2520,480,10680,0
22501000,6645,-352,10,-36,1008,25368,3633,-3745,9823,-1058,480,9920,0
22549000,6655,-484,-202,56,315,17128,-5277,-1731,8891,-1304,599,9639,0
22601000,6290,-639,114,-4,1226,8522,32,-3439,9689,-1799,599,9519,39
22649000,5926,-693,-10,164,589,7912,-1737,-3745,10051,-872,480,9320,399
22701000,5501,-828,0,260,451,6935,-1981,-3684,10975,-446,480,9159,680
22749000,5276,-781,-68,111,936,8522,-943,-3317,11014,136,599,8959,840
22801000,5297,-682,102,-44,1798,9682,-699,-3623,7148,2392,599,7679,1480
22849000,5133,-743,91,114,2026,4982,93,-2402,5693,4215,599,7079,2119
22901000,4733,-1086,45,180,801,1686,-9061,-4599,4278,4901,599,6159,2720
22949000,4362,-1454,180,217,1512,-144,-1309,-2524,4987,4737,480,6080,2999
23001000,4038,-1493,87,-96,1107,-1364,-577,-2219,6004,5599,599,6040,3359
23049000,3878,-1688,31,124,731,-449,-6192,-1731,6692,5239,599,6120,3399
23101000,3911,-1514,60,149,915,-6614,2901,-1853,6505,6376,599,6080,3640
23149000,3890,-1249,245,128,913,-12656,-6680,-1975,5867,7416,480,5880,3719
23201000,3530,-1308,110,230,1103,-20224,-882,-1364,4649,8553,480,5079,4159
23249000,2896,-1047,-171,230,1157,-24192,4976,-998,5550,9907,599,4839,4400
23301000,2384,-1182,120,101,180,-20407,-7413,-2036,7365,11451,599,4839,5000
23349000,2271,-1326,-44,181,769,-22483,1558,-998,8379,12407,480,5079,5480
23401000,2163,-1166,199,-3,396,-24558,5098,-1120,12110,13779,480,6199,5759
23449000,2035,-1170,-49,187,532,-24985,1986,161,14285,14221,599,6800,5920
23501000,1872,-1312,98,-26,662,-18149,704,893,14901,13822,599,6840,5920
23549000,2267,-1418,-77,203,400,-11252,1314,1747,14303,13671,599,6919,5959
23601000,2833,-1692,-43,126,224,-13572,-7169,1625,12738,12802,599,7079,5959
23649000,3077,-1991,85,170,1213,-20102,-3446,2358,11920,12017,480,7040,5959
23701000,3446,-2102,-85,269,968,-15769,-5643,771,10781,11333,480,7040,5880
23749000,3935,-2271,72,88,1121,-14121,-5887,-510,9302,10834,599,7000,5840
23801000,4195,-2337,-67,126,1193,-20041,-2347,283,9133,10507,599,7240,5840
23849000,3999,-2409,98,287,1451,-21933,-2103,-2402,9776,9750,480,7320,5639
23901000,3418,-2669,172,193,1188,-22666,-5948,-2219,13625,7471,480,7960,5160
23949000,3043,-2955,65,92,867,-20957,-7352,-1792,17011,5420,599,8759,4719
24001000,2989,-3191,112,122,1646,-15464,-6192,-2463,19471,3146,599,9480,4240
24049000,3235,-3223,205,140,1635,-8200,-3140,-2097,22506,380,599,10680,3359
24101000,3615,-2864,95,186,648,-6003,8028,-2158,25394,-2233,599,12080,2119
24149000,4130,-2322,-102,144,531,343,4488,-2036,25684,-2614,599,12600,1519
24201000,4684,-1993,116,79,-88,282,3145,-3073,24945,-1899,599,13000,1359
24249000,5235,-1468,-32,49,-95,1564,10714,-3806,23812,-1101,599,13080,1199
24301000,5966,-1144,39,-78,503,6081,4000,-2097,21821,-432,599,13239,999
24349000,6418,-1020,222,91,1147,8827,10469,-4660,21627,-658,480,13559,840
24401000,6771,-810,-143,96,64,9682,11324,-3317,21565,-870,480,13959,520
24449000,6826,-785,-73,-42,-305,5226,9127,-4172,22201,-1385,599,14240,320
24501000,6853,-658,224,-36,2201,5898,11080,-4233,22280,-1976,599,14280,0
24549000,6967,-521,47,225,550,11330,14681,-5576,22097,-1593,480,14280,39
24601000,7174,-309,119,133,2201,13161,15413,-4904,21436,-929,480,14320,0
24649000,7052,-304,312,55,2201,12062,14254,-3562,21688,-968,599,14320,-39
24701000,6760,-644,258,90,2201,10658,10775,-2951,22797,-2052,599,14360,-39
24749000,6508,-1025,-43,-43,239,16518,5281,-2097,23381,-2894,599,14320,0
24801000,6511,-1441,97,196,158,11940,4915,-2646,23426,-4443,599,14320,-39
24849000,6547,-1497,92,156,1569,10842,11324,-2280,23060,-4613,480,14240,-39
24901000,6466,-1387,-211,277,1177,10964,18770,-1547,23440,-4403,480,14280,-80
24949000,6369,-1073,137,-128,1938,9560,19808,-2707,23547,-3504,599,14240,-39
25001000,6169,-938,41,231,1193,11147,17183,-3623,24091,-3054,599,14200,-80
25049000,6066,-1000,15,127,1127,11330,13033,-1731,24511,-3146,480,14240,-80
25101000,6129,-1443,201,65,618,14687,4366,-815,24330,-4569,480,14240,-80
25149000,6224,-1664,331,148,1688,11696,14986,-1120,24218,-5362,599,14280,-119
25201000,6158,-1574,107,0,1279,11452,17916,-1242,24245,-4964,599,14240,-80
25249000,6038,-1508,25,210,134,5593,14681,161,24565,-4803,599,14240,-80
25301000,6225,-1363,66,202,744,7179,15596,39,22722,-4329,480,13800,-80
25349000,6478,-1248,33,245,1560,9987,13033,1198,19903,-3986,599,13080,-80
25401000,6736,-1271,142,58,1102,7179,11751,1137,19030,-4053,599,13080,-80
25449000,7022,-1248,32,85,479,11147,13277,-571,18379,-3935,599,13080,-39
25501000,7297,-1267,-177,50,348,10170,5281,1076,17347,-4043,599,13080,-80
25549000,7428,-1511,391,202,1902,7118,8821,-1486,16995,-4725,480,13080,-80
25601000,7531,-1403,-238,217,-111,7118,13887,-754,17246,-4449,480,13280,-80
25649000,7661,-1467,-12,4,1323,3456,3572,-1792,17133,-4646,599,13360,-119
25701000,8003,-1687,65,48,2201,5165,3023,-1792,15110,-5181,599,13039,-39
25749000,8137,-1668,-283,96,-82,3090,9188,39,9719,-5074,480,11359,0
25801000,8351,-1590,38,202,-255,6935,5220,-693,7104,-4772,480,10720,0
25849000,8453,-1673,62,200,1433,-1426,5342,832,6502,-5098,599,10639,-39
25901000,8125,-1742,129,49,1674,-4905,4915,649,6704,-5227,599,10360,0
25949000,7905,-1890,148,308,1279,3334,1925,-83,7238,-5600,599,10320,0
26001000,7940,-1882,-75,250,771,2480,4976,832,7499,-5646,599,10439,0
26049000,7872,-1768,-78,108,2201,-83,5342,-22,7484,-5498,599,10400,-39
26101000,7594,-1526,44,337,350,-3928,5342,527,8175,-4578,599,10320,0
26149000,7422,-1572,-74,310,1547,-1609,-4422,771,5619,-4711,599,9320,-39
26201000,7405,-1657,84,160,1297,-144,2901,-22,-615,-4973,599,7200,0
26249000,7249,-1630,-35,135,884,-6919,-1187,-1486,-7747,-4868,480,4719,0
26301000,6743,-1822,15,-1,1728,-17051,-5155,-205,-13149,-5468,480,2360,0
26349000,6015,-1814,151,8,2201,-23093,216,-2768,-15654,-5607,599,920,-39
26401000,5136,-1870,69,141,647,-20896,-2896,-1547,-15409,-5132,599,0,160
26449000,4598,-1816,-102,43,-143,-26816,216,-1547,-13960,-4866,599,0,239
26501000,4649,-1514,131,34,1557,-22605,-2774,-1669,-13949,-3822,599,0,239
26549000,4503,-1482,78,234,2201,-21384,-3079,-1731,-13710,-3662,480,0,239
26601000,4055,-1708,8,-17,813,-19370,-4239,-1181,-12166,-4405,480,0,239
26649000,3863,-1684,-201,277,619,-17295,-2774,-1914,-11575,-4539,599,0,199
26701000,4077,-1461,47,153,1912,-16928,-4971,-571,-12351,-3783,599,-39,199
26749000,4060,-1582,243,51,2201,-17295,-7291,-1486,-12262,-3505,599,0,360
26801000,3762,-1883,89,107,2201,-18637,-4971,-1608,-11287,-2649,599,0,999
26849000,3376,-2079,-141,304,302,-17600,-7596,-2402,-10281,-1230,480,0,1640
26901000,3294,-2297,-1,83,1593,-19858,-15347,-3317,-9883,3067,480,0,3320
26949000,3256,-2581,-334,232,313,-17539,-13577,466,-9739,7075,599,0,4920
27001000,3513,-2698,-228,193,707,-17722,-26029,100,-9699,10984,599,280,6359
27049000,4104,-2889,-254,55,27,-11679,-31461,1564,-7900,12880,599,1319,7160
27101000,5417,-2893,14,78,1196,-4355,-33902,2480,-7131,15919,599,3039,8199
27149000,6139,-3095,-19,269,1660,-9787,-34696,1992,-5364,16971,480,4279,8719
27201000,6147,-3546,32,154,2195,-14426,-39395,4616,-3923,16359,480,4839,9000
27249000,5699,-4385,-34,349,321,-17783,-46475,1076,-2093,14353,599,5079,9040
27301000,5429,-4567,0,248,204,-24863,-26761,-1364,1952,13178,599,6080,8959
27349000,5278,-4071,66,184,1084,-39267,-26639,-144,4609,14621,599,6919,9000
27401000,4649,-3974,-66,-87,248,-33957,-23343,-2341,7292,14957,599,7079,8959
27449000,4410,-3919,123,195,1599,-8750,-21268,-2829,7862,14667,480,7040,8800
27501000,5014,-4141,33,62,1355,12734,-24320,-3012,7395,12775,480,7479,8400
27549000,5643,-4241,-12,8,785,10536,-19315,-2341,7036,9559,599,7880,7439
27601000,5988,-4149,-24,-90,1188,3945,-13455,-5026,8073,6872,599,8680,6440
27649000,6034,-3700,-103,79,620,-2707,1741,-3623,9111,3479,599,9080,4960
27701000,6135,-3097,122,89,1288,6142,-2286,-3501,13754,-532,599,10720,2920
27749000,6655,-2930,-105,68,350,21706,-5216,-2585,15097,-2376,480,11559,2160
27801000,7513,-2596,18,74,439,21279,4732,-2890,15018,-2628,480,12520,1719
27849000,8080,-2219,119,176,2201,18593,4732,-1975,13879,-2126,599,12639,1559
27901000,8358,-1938,16,125,315,16213,5404,-2951,15123,-2936,599,13400,959
27949000,8781,-1578,119,-35,1105,24269,10347,-2158,15751,-2776,599,13959,720
28001000,9344,-1506,92,-56,1015,28420,4915,-2402,14206,-3198,599,14080,439
28049000,9621,-1569,-103,177,1203,30251,9798,-1792,13347,-4468,480,14040,79
28101000,10069,-1295,61,139,37,30678,15291,-1425,12152,-3886,480,14119,0
28149000,10533,-702,61,149,199,25917,24263,-876,10560,-2413,599,14000,0
28201000,10406,-217,174,212,1784,10719,22432,-1853,10779,-653,599,14000,0
28249000,9837,-155,-19,-7,-264,10597,18953,-4599,9526,-497,599,13080,0
28301000,9574,-17,85,28,195,11269,25789,-4782,9195,-51,599,12639,0
28349000,9570,197,46,204,1305,17983,22615,-4843,7544,570,480,12080,0
28401000,9693,-66,353,-38,2201,23842,16756,-5210,4878,-79,480,11320,39
28449000,9817,-209,24,17,582,30800,21212,-6430,4733,-694,599,11359,-39
28501000,10047,-418,153,108,1069,26772,12239,-8017,3817,-1255,599,11320,0
28549000,10134,-560,240,142,-156,21462,20235,-6857,3560,-1717,599,11320,0
28601000,10057,-286,-91,162,1247,15907,20235,-6918,3427,-858,599,11199,0
28649000,9931,-431,22,171,1300,16091,12667,-6857,3810,-1034,359,11240,39
28701000,9619,-458,231,270,1982,8034,22310,-6980,1740,-1256,-719,10200,39
28749000,9175,-403,76,234,746,4128,9737,-6186,-403,-983,-6359,9119,39
28801000,8517,-533,143,70,512,-2158,20113,832,-4551,-1600,-18360,7000,0
28849000,7985,-241,-24,306,990,-1303,15474,8278,-8659,-812,-23760,5160,0
28901000,7511,-583,-146,173,-565,-7224,-1615,14931,-11973,-1751,-29280,3520,0
28949000,6917,-532,-121,163,-408,-28952,16817,18288,-16357,-1854,-29519,1600,0
29001000,6053,-435,55,149,895,-27976,-2408,20119,-18039,-1427,-29519,39,-39
29049000,5016,-1017,-72,154,964,-32859,399,18776,-15618,-2887,-29159,0,0
29101000,4435,-1099,131,-177,1442,-9848,6319,17128,-13305,-3418,-12959,0,-39
29149000,4685,-731,18,90,2201,-1242,26644,9926,-13948,-2303,359,0,79
29201000,4469,215,23,67,540,-14731,42086,4250,-13409,2806,359,0,720
29249000,4211,662,-102,-38,745,-7468,21273,2419,-12697,5604,599,0,1199
29301000,4068,286,104,53,1597,-10825,14681,39,-12326,8659,480,-39,2600
29349000,3767,3,48,165,2183,-13449,14864,1870,-11415,8439,359,0,2760
29401000,3441,-654,130,132,426,-16074,-1981,3334,-10324,6436,-1799,0,2799
29449000,3286,-1395,132,214,1769,-11313,8211,4494,-9902,5024,-7200,0,2999
29501000,3379,-1585,1,208,1369,-8445,8883,9194,-10258,4362,-15119,-39,3039
29549000,3538,-1836,51,-51,1274,-9299,2718,14687,-10534,3659,-19079,0,2999
29601000,3627,-2064,9,-51,1807,-11191,6014,16396,-11002,2927,-20520,-39,3039
29649000,3703,-2175,-138,197,329,-10093,7906,18776,-11095,3591,-20520,0,3359
29701000,3823,-2180,18,153,1039,-6980,6014,19204,-11470,5938,-18360,0,4159
29749000,4159,-2343,58,231,416,-3501,643,18105,-12296,7756,-7560,0,4879
29801000,4443,-2683,152,-57,347,-5515,93,7668,-13329,12830,-2160,0,6960
29849000,4666,-2962,-48,53,509,-1120,-5765,6691,-13737,16178,-1560,39,8280
29901000,4912,-3589,28,115,876,-2097,-16263,6752,-14736,19350,359,0,10039
29949000,4911,-4136,-76,124,518,-5576,-13516,3579,-14726,19709,359,0,10639
30001000,4911,-4457,47,73,877,-2646,-15775,1992,-14733,20588,599,0,11320
30049000,5053,-4892,174,163,1238,-2707,-15958,1381,-15117,19951,480,0,11480
30101000,5025,-5185,267,117,605,-5027,-13822,466,-15077,19362,359,0,11640
30149000,5068,-5517,-51,125,572,-2036,-18216,-815,-15163,18547,480,0,11640
30201000,5135,-5882,163,77,1810,-3257,-22183,-2219,-15285,17991,599,39,11879
30249000,5198,-6052,103,174,834,-6247,-20535,-1547,-15532,18236,599,0,12119
30301000,5293,-6151,89,129,1631,-8323,-23648,-937,-15880,17904,599,0,12119
30349000,5088,-6285,27,69,1539,-9970,-21268,-1364,-15382,18011,480,0,12279
30401000,4972,-6309,-2,108,-94,-5881,-22061,-510,-15036,18032,480,-39,12320
30449000,5095,-6389,-13,42,1709,-6491,-23831,-754,-15232,17466,480,0,12200
30501000,5189,-6336,137,91,702,-9665,-21634,-510,-15447,17349,480,39,12119
30549000,5127,-6406,-85,93,1800,-5820,-22977,39,-15326,16948,480,39,12040
30601000,4983,-6435,177,202,-286,-7346,-19742,405,-14831,15494,480,39,11600
30649000,4839,-6468,23,25,1473,-7834,-22305,-1303,-13427,14263,359,399,11199
30701000,4693,-6578,217,77,664,-5210,-19986,-1242,-9520,10743,359,1519,10160
30749000,4646,-6468,163,60,1645,1625,-14981,-388,-8650,9936,480,1760,9800
30801000,4740,-6410,-57,68,-8,5165,-16385,-205,-8822,10407,480,1800,9879
30849000,4781,-6310,149,214,1024,954,-14188,-1242,-9176,11133,480,1719,10039
30901000,4726,-6099,-98,158,1533,-1242,-14981,-632,-8900,11820,599,1760,10039
30949000,4760,-6060,-84,72,1703,5837,-16995,-510,-8969,11913,480,1760,10039
31001000,4902,-5997,184,202,810,6752,-16141,-327,-9426,11767,480,1760,9920
31049000,4913,-6084,-25,155,857,1076,-17545,466,-9505,11604,480,1760,9920
31101000,4796,-6075,73,1,1668,1015,-13089,344,-9109,11533,599,1760,9920
31149000,4848,-5973,86,-19,1178,7240,-11075,-510,-9158,11882,480,1760,9960
31201000,5175,-5984,14,183,924,8461,-13455,39,-10247,10847,480,1760,9600
31249000,5387,-6044,23,-91,686,2968,-10648,283,-10947,10616,599,1719,9600
31301000,5443,-5879,-8,23,435,3212,-9488,344,-11049,11042,599,1760,9560
31349000,5434,-5627,66,184,1113,4555,-8695,-815,-11034,9618,599,1760,8880
31401000,5421,-5210,141,-10,2081,5654,-4605,-449,-12424,4049,599,1280,6559
31449000,5373,-4794,-34,-109,982,3517,-3324,-449,-13510,-2703,480,880,3959
31501000,5176,-4227,-64,78,728,-388,5404,-144,-13970,-5481,480,520,2400
31549000,4978,-3318,-58,57,157,-632,10775,-510,-14669,-3698,599,120,2239
31601000,4789,-2633,11,-72,1033,-327,1009,-83,-14247,-1181,599,39,2239
31649000,4532,-2134,-42,-12,1051,-3928,4610,-327,-13626,410,599,39,2360
31701000,4179,-1544,32,64,1351,-3562,2596,-83,-12419,4006,599,39,2880
31749000,4014,-1392,65,174,1096,-1242,1497,771,-11984,9632,480,39,4600
31801000,4070,-1455,-25,171,553,-83,2291,1259,-12091,16994,480,39,7119
31849000,4133,-1796,38,245,942,-22,-7779,1992,-10906,20301,599,480,8480
31901000,4243,-2384,181,-180,1897,-1242,-8817,1259,-8769,18887,599,1319,8680
31949000,4301,-2871,81,4,961,527,-5704,1381,-8822,17774,599,1359,8719
32001000,4351,-3289,-7,-10,511,2419,-7657,1809,-9095,16412,599,1319,8759
32049000,4383,-3456,-3,185,1081,1503,-1431,2114,-9176,15886,480,1319,8759
32101000,4433,-3376,199,82,1499,-83,-577,3395,-9460,15909,480,1280,8680
32149000,4462,-3544,44,63,1243,38,-4971,3884,-9415,14810,599,1319,8440
32201000,4533,-3663,30,-104,811,1625,-2408,5043,-9639,12768,599,1319,7920
32249000,4600,-3592,247,-175,687,3395,-882,4616,-9914,10016,599,1280,6919
32301000,4808,-3696,109,169,898,6508,521,5104,-10584,4751,599,1280,5280
32349000,4892,-3611,-83,86,1860,2663,9737,4982,-10911,4079,480,1240,5000
32401000,4843,-3320,-223,-9,1648,2663,10897,4555,-10691,5638,480,1280,5200
32449000,4885,-3269,32,-57,2035,6264,7418,2968,-9564,7716,599,1679,5840
32501000,4883,-3242,402,132,1032,1625,10103,2541,-8649,8033,599,2000,5920
32549000,4936,-3395,239,138,795,7607,5648,2358,-9125,7314,480,1879,5799
32601000,5004,-3416,269,135,2090,5043,10408,1625,-14173,3069,480,280,4440
32649000,4839,-3256,281,173,914,649,14071,344,-14540,3236,599,39,4360
32701000,4537,-3066,-14,-23,118,1625,15230,-266,-13733,3999,720,-39,4400
32749000,4251,-2895,-80,-112,1209,2236,16085,-2402,-12820,4909,720,0,4560
32801000,4162,-2782,21,31,892,4311,15047,-3317,-12487,10493,720,0,6280
32849000,4192,-2864,295,-1,1608,3884,7845,-3439,-12594,12277,599,0,6919
32901000,4234,-3296,202,172,1466,3395,4122,-3501,-12704,11709,599,0,7200
32949000,4227,-3570,249,35,986,-876,6502,-3256,-12541,10885,720,39,7160
33001000,4143,-3849,82,-98,973,-1120,4061,-3256,-12431,9810,720,0,7119
33049000,3955,-4019,-42,25,551,-4233,6624,-4660,-11988,9443,839,0,7160
33101000,3617,-4103,-123,120,620,-6186,6502,-5698,-10853,9169,2519,0,7160
33149000,3448,-4115,278,116,820,-3989,6136,-7346,-10361,9265,2640,0,7200
33201000,3505,-4224,32,-47,2201,-998,5342,-7712,-10516,8927,2640,0,7200
33249000,3655,-4275,82,52,1755,1747,8272,-8689,-10734,8773,2760,39,7200
33301000,3754,-4246,163,6,1433,-1242,8638,-9116,-11142,8860,2760,39,7200
33349000,3847,-4184,156,40,576,-4721,7967,-8994,-11532,9159,2760,0,7240
33401000,3795,-4277,183,29,631,-7773,5648,-8566,-11385,9488,2640,0,7439
33449000,3571,-4344,17,172,436,-10215,4549,-8444,-10873,9283,2519,0,7439
33501000,3323,-4400,-46,152,1084,-7712,4732,-7712,-9850,9237,2400,39,7479
33549000,3262,-4523,185,181,769,-6858,2596,-6552,-9552,8719,2279,79,7400
33601000,3305,-4714,-102,38,1323,-2158,2047,-5820,-9675,8176,1679,79,7439
33649000,3244,-4754,69,269,1547,-5271,4000,-5393,-9767,8180,1560,0,7479
33701000,3217,-4920,47,5,853,-2585,399,-4355,-9651,8517,720,0,7760
33749000,3310,-4996,-89,11,1117,466,1436,-3684,-9870,8200,599,0,7720
33801000,3392,-5091,132,383,1292,3273,-638,-3562,-10177,7886,720,0,7720
33849000,3617,-5174,264,192,917,-1914,1436,-3745,-10816,7748,720,0,7760
33901000,3597,-5237,68,18,202,-1914,948,-3195,-10793,7928,720,0,7880
33949000,3610,-5477,-42,159,1265,-22,277,-3439,-10925,7710,599,-39,7999
34001000,3703,-5640,-66,208,1456,-22,1375,-2829,-11109,7319,599,0,8080
34049000,3617,-5648,-4,162,2025,-4843,2840,-2768,-10881,7161,720,0,8039
34101000,3537,-5624,164,10,1002,-998,338,-2219,-10491,7247,720,39,8039
34149000,3557,-5646,-37,-64,779,1076,-882,-2890,-10668,7192,720,0,8039
34201000,3565,-5742,-95,103,1313,649,-2835,-2829,-10695,6891,720,0,8039
34249000,3375,-5828,-76,75,544,-6797,-882,-2524,-10261,6670,480,0,8039
34301000,3049,-5926,187,69,628,-10703,-3324,-3134,-9269,6580,480,-39,8120
34349000,2966,-6105,205,-56,1269,-9299,-3018,-2829,-8881,6463,599,0,8239
34401000,2875,-6091,-12,-133,1840,-9909,-1798,-2341,-8626,7285,599,0,8520
34449000,2834,-6021,-87,43,179,-6675,-3385,-2402,-8457,7995,599,0,8680
34501000,2916,-5950,267,145,1048,-7224,-5216,-1120,-8749,8309,599,0,8719
34549000,3111,-5889,167,94,1175,-3501,-3751,-632,-9336,8451,480,-39,8719
34601000,3365,-5945,164,-33,-75,-2219,-5887,771,-10097,8203,480,0,8680
34649000,3415,-6142,52,-23,582,-6675,-9366,1076,-10177,7607,599,39,8640
34701000,3282,-6152,232,56,1142,-6614,-4239,1625,-5768,7582,599,1359,8680
34749000,3246,-6223,236,-90,2167,-3379,-5704,1625,-3860,7264,599,1960,8640
34801000,3199,-6242,225,-121,769,1137,-6436,1137,-598,6953,599,2999,8559
34849000,3265,-6140,131,88,134,3822,-4849,1076,-22,7110,480,3239,8520
34901000,3502,-6241,-1,29,1503,10719,-9000,39,-186,6714,599,3440,8480
34949000,3745,-6342,132,-30,1794,9255,-3262,-1242,-56,6407,599,3680,8480
35001000,4008,-6235,47,-6,317,10170,-2713,-1914,693,6492,599,4240,8400
35049000,4345,-6081,89,17,449,13771,-5155,-1792,-22,5911,480,4279,8080
35101000,4780,-5731,101,61,1532,14198,704,-1486,-1620,5726,480,4240,7639
35149000,4922,-5417,-21,107,868,13222,-577,-1792,-1799,5703,599,4319,7360
35201000,4906,-5290,62,225,1615,11391,-89,-1547,-1879,5969,599,4279,7279
35249000,4772,-5261,61,189,1666,7240,1375,-1425,-1542,5669,599,4279,7160
35301000,4583,-5211,80,-138,1550,6935,-28,-1486,-1030,5485,599,4240,7040
35349000,4345,-5160,154,-113,2201,7424,704,-2280,-298,5620,480,4279,7040
35401000,4126,-5122,138,-7,825,9316,-333,-1914,340,5633,480,4240,7000
35449000,4071,-5270,271,68,1529,9987,-2286,-2890,733,5285,599,4319,7000
35501000,4014,-5287,41,75,1069,7179,3695,-1303,917,5136,599,4319,7000
35549000,4110,-5392,198,121,773,10781,-1065,-1242,566,5047,599,4279,7040
35601000,4269,-5596,-12,120,293,9926,-455,-1059,32,4329,599,4279,7040
35649000,4335,-5705,147,131,1685,8705,-1615,-815,-136,3967,480,4279,7000
35701000,4369,-5909,134,20,1230,8888,-3018,-1120,-267,3271,480,4279,7000
35749000,4458,-5940,40,-96,940,7118,1192,-1364,-493,3258,599,4279,7040
35801000,4454,-5781,61,-81,-55,4982,582,-1242,-524,3655,599,4279,7000
35849000,4379,-5662,-35,-72,1940,4677,1009,-1914,-443,4061,480,4240,7040
35901000,4402,-5526,118,144,1251,7363,-455,-2646,-2888,4539,480,3440,7040
35949000,4522,-5326,195,141,1386,7790,-699,-2402,-6185,4902,599,2439,7000
36001000,4376,-5131,264,199,1415,-3135,2840,-1853,-6050,5606,599,2360,7000
36049000,4030,-5011,20,-23,800,-3928,-882,-1914,-5601,6054,599,2239,7040
36101000,3537,-4882,-9,122,1176,-6614,338,-1425,-3772,6473,599,2279,7040
36149000,3130,-4687,-50,207,923,-5149,32,-998,-2814,6930,480,2239,7040
36201000,3014,-4488,253,139,2118,-2646,-1004,-571,-2323,7653,480,2239,7040
36249000,2991,-4589,-46,115,567,99,-3262,-83,-2117,7320,599,2279,7000
36301000,3117,-4876,-82,60,2201,-327,-4117,39,-4553,6009,599,1600,6879
36349000,2920,-5004,36,34,463,-5149,93,-632,-4170,4943,599,1559,6640
36401000,2869,-5154,238,42,1131,-2036,-1492,-693,-5127,2055,599,1159,5840
36449000,2983,-5387,313,-18,1654,-4294,1619,-1731,-7956,-1190,480,320,4960
36501000,2848,-5429,-75,171,496,-11008,5037,-1181,-8304,-1887,480,79,4800
36549000,2687,-5158,-44,146,747,-10886,7845,-1669,-7995,-2442,599,39,4400
36601000,2643,-4820,259,196,936,-7224,7784,-1242,-7931,-12182,599,0,759
36649000,2727,-4644,152,289,780,-7041,12545,-449,-8095,-14273,480,0,-80
36701000,2733,-4277,115,204,693,-9665,19808,-144,-8321,-20031,480,-39,-2400
36749000,2623,-3918,60,61,1561,-7651,21212,-266,-7911,-21859,599,0,-3320
36801000,2706,-3664,85,39,2201,99,22188,-1303,-8119,-25992,599,0,-5000
36849000,2828,-3213,216,22,1252,-1914,30001,-693,-8436,-27670,599,0,-5920
36901000,2858,-2655,201,65,1511,-4294,28475,-388,-8574,-28127,599,0,-6720
36949000,2900,-2350,306,-17,1698,-3073,25789,-998,-8704,-29248,480,0,-7359
37001000,3014,-1975,49,138,597,-2951,31527,-449,-9042,-31126,599,0,-8400
37049000,3034,-1649,-6,140,738,-3196,29573,-449,-9105,-31954,359,0,-8960
37101000,3048,-1281,-116,11,451,-1853,31588,-571,-9026,-35163,359,39,-10440
37149000,3174,-845,17,-147,1654,710,33480,-2402,-9445,-35288,480,0,-10840
37201000,3110,-378,121,182,1215,-4538,32991,-2890,-9331,-34855,480,0,-11240
37249000,2987,-76,187,152,1566,-10764,35372,-1914,-9073,-34482,480,0,-11360
37301000,2666,345,265,107,244,-9909,33907,-1425,-8000,-33524,480,0,-11520
37349000,2482,509,172,24,416,-5210,28658,-2158,-7527,-33023,480,0,-11520
37401000,2535,595,131,35,668,-1426,29818,-2890,-7605,-32774,480,0,-11520
37449000,2575,608,148,91,1368,-5088,28475,-2524,-7702,-32586,480,0,-11480
37501000,2579,392,223,-100,1896,-6797,23653,-1975,-7857,-33021,480,-39,-11400
37549000,2611,108,16,-171,519,-4233,25179,-2219,-7800,-33168,480,0,-11200
37601000,2764,19,193,145,410,-4050,23348,-2402,-8174,-29821,480,39,-9960
37649000,2795,-287,194,226,1044,-6491,18892,-1486,-8389,-25424,480,0,-8240
37701000,2669,-579,167,199,1196,-8750,16146,-1547,-8009,-14218,599,0,-4160
37749000,2578,-1052,13,215,752,-6003,1619,-998,-7748,-7142,480,0,-1440
37801000,2559,-2022,43,15,1309,-2524,-10648,-1059,-7797,-5946,599,-39,39
37849000,2436,-2794,59,-126,651,-6003,-11258,-998,-7290,-3012,720,39,1679
37901000,2300,-3551,-65,-137,1164,-3562,-17667,-327,-6782,1705,720,39,4119
37949000,2202,-4313,-39,-60,799,-6430,-20169,649,-6687,3983,720,0,5520
38001000,1951,-5009,35,156,1695,-8933,-23892,1625,-5855,8851,720,0,7960
38049000,1764,-5787,-35,84,1681,-6980,-35062,1931,-5471,11373,599,-39,9440
38101000,1741,-6566,114,-35,1512,-4843,-36527,1747,-5225,16300,599,0,12000
38149000,1855,-7156,148,100,1251,-4172,-38968,1320,-5397,17723,720,39,12960
38201000,1907,-7914,188,-55,1167,-9299,-44034,893,-4763,17056,720,320,13599
38249000,1841,-8477,86,71,1959,-8261,-43668,-205,-3984,18090,599,520,14440
38301000,1815,-8961,107,247,400,-3562,-46414,161,-887,18954,480,1519,15280
38349000,1983,-9291,66,-6,1157,2419,-46720,-510,-901,18141,599,1640,15280
38401000,2250,-9862,-112,166,-122,2480,-55325,405,-632,16372,599,2040,15320
38449000,2429,-10062,62,31,1358,-388,-44095,405,-362,16453,599,2279,15559
38501000,2834,-9757,123,-123,467,4860,-47269,344,616,17407,599,3039,15559
38549000,3300,-9698,137,200,484,4250,-51053,283,3050,17680,480,4240,15599
38601000,3743,-9458,-117,64,-534,9133,-43668,222,1608,18064,480,4279,15480
38649000,4119,-9273,107,125,1669,8949,-51114,-327,857,18181,599,4360,15320
38701000,4262,-9625,45,-105,1183,7546,-54593,222,893,17324,599,4560,15400
38749000,4172,-9699,54,106,112,4494,-45621,100,1810,17047,599,4800,15400
38801000,4109,-9473,-32,-31,939,7607,-45011,-937,2670,16458,599,5000,14960
38849000,4039,-9404,-139,147,758,7057,-45743,-2524,2813,8992,480,5000,12400
38901000,4018,-9082,-81,-108,1304,8705,-34451,-1547,6664,-2166,599,6240,8360
38949000,4141,-8397,-157,141,-294,14504,-24930,-2036,5336,-14550,599,5880,3680
39001000,4556,-7252,71,-107,214,18105,-5704,-2646,-6828,-21758,599,2279,0
39049000,4681,-5718,-12,258,1662,10170,7051,-1303,-13017,-19479,480,360,-520
39101000,4339,-4491,-65,78,655,832,-2042,649,-12899,-20315,480,39,-2280
39149000,3707,-3750,65,-63,1327,-6491,4854,771,-11264,-18723,599,79,-2359
39201000,2987,-2787,-79,93,1509,-4355,11629,2541,-8723,-15081,599,79,-2239
39249000,2553,-2222,-192,1,491,-754,4549,2114,-6972,-11533,599,280,-1560
39301000,2322,-1935,18,-52,313,1625,6319,2236,-5168,-8805,599,599,-1000
39349000,2201,-1651,63,233,313,-205,8944,3090,-3075,-7014,480,1199,-640
39401000,2194,-1529,-16,-26,517,4738,4000,4189,616,-6509,480,2400,-640
39449000,2313,-1375,255,5,985,5287,10042,2602,317,-12291,599,2400,-2680
39501000,2543,-1060,218,93,695,5165,14681,3151,-42,212,813,4860,26888
39601000,2706,289,246,24,1279,3456,29268,4128,-1160,-23732,480,2320,-8200
39649000,2766,784,107,92,1147,4616,29512,3823,-1300,-24165,599,2320,-8760
39701000,2779,1343,-56,131,1429,4067,33724,4006,-1858,-21169,599,2160,-8400
39749000,2828,1581,31,53,252,6630,26216,5043,-4602,-16723,599,1280,-7160
39801000,2814,1515,-38,-108,700,4311,22310,4738,-8442,-4572,599,0,-3040
39849000,2612,1443,99,-56,508,-2097,16695,6081,-8102,4617,480,-39,79
39901000,2478,688,329,173,967,405,1070,5288,-7434,2064,480,0,0
39949000,2476,-235,62,270,2201,2663,6380,6142,-7270,-506,599,39,-39
40001000,2511,-911,18,22,2133,99,9005,5837,-7415,-2734,599,39,0
40049000,2535,-1415,19,-7,1,3761,5037,5837,-7575,-3897,599,0,39
40101000,2530,-1693,115,179,-768,-83,12362,6630,-7591,-5079,599,0,0
40149000,2510,-1796,198,81,2201,2480,8211,6386,-7531,-5401,480,0,-39
40201000,2579,-2116,34,170,671,-1670,10103,6630,-7738,-6348,599,0,0
40249000,2583,-2315,-231,110,-170,3273,7906,7058,-7733,-6931,599,0,-39
40301000,2448,-2393,153,39,-40,-449,9798,6630,-7344,-7180,599,0,0
40349000,2272,-2365,69,25,1875,-2402,14315,5654,-7034,-7151,480,-39,0
40401000,2334,-2291,4,165,2201,1686,11507,5898,-7004,-6753,480,0,39
40449000,2417,-2304,-126,99,1202,8522,8394,5715,-7188,-6915,599,0,-39
40501000,2416,-2316,188,-43,191,2236,11080,4982,-7130,-7070,599,39,-39
40549000,2427,-2256,88,35,1685,466,13155,3945,-7327,-6853,599,0,0
40601000,2462,-2199,27,93,2201,4555,16756,4372,-7386,-6597,599,0,0
40649000,2444,-1913,-76,-80,1567,9499,20662,5532,-7412,-5870,480,-39,0
40701000,2763,-1762,-57,-79,-417,16030,10103,4799,-8289,-5408,480,0,-39
40749000,3129,-1930,111,240,449,11818,12545,2846,-9226,-5737,599,0,0
40801000,3306,-1811,151,39,-180,7424,12728,2846,-9919,-5434,599,0,0
40849000,3432,-1892,287,224,2201,4738,1741,1320,-10248,-5535,480,0,0
40901000,3193,-2099,42,5,1294,-5454,8211,1442,-9699,-6297,480,-39,0
40949000,2836,-1912,-19,138,600,-3745,5037,100,-8485,-5931,599,39,-39
41001000,2866,-2039,370,-51,1017,5959,2962,-2158,-8599,-6118,599,0,0
41049000,2935,-1903,340,166,730,9682,16512,-4965,-8750,-5912,599,0,0
41101000,3038,-1735,184,201,1511,4067,5159,-5576,-9116,-5206,599,0,0
41149000,2917,-1910,139,250,625,-6247,8577,-6918,-8886,-5703,480,0,0
41201000,2363,-1514,35,-139,1765,-14609,22615,-6186,-7090,-4422,480,0,39
41249000,1793,-1537,98,-133,1378,-11863,5098,-6613,-5599,-4503,599,0,-39
41301000,1413,-1927,-12,-10,1090,-6614,15169,-7529,-4121,-5781,599,39,0
41349000,1287,-1370,118,18,1202,-3196,25545,-5393,-3876,-4478,599,0,0
41401000,1293,-1143,112,-159,1156,-5332,9188,-6308,-3880,-3431,480,0,0
41449000,1127,-1201,12,-35,1522,-7956,11690,-4599,-3585,-3752,599,-39,-39
41501000,892,-1145,213,-35,1629,-11557,9920,-3745,-2678,-3437,720,0,0
41549000,716,-1248,233,-70,1321,-10215,11080,-4843,-2200,-3726,720,0,0
41601000,812,-1299,-73,33,244,-4111,12362,-4294,-2436,-3898,720,0,0
41649000,1155,-1279,-82,-134,683,2785,9127,-4477,-3396,-3868,599,-39,0
41701000,1445,-1230,182,144,704,710,10225,-4050,-4335,-3692,599,0,0
41749000,1633,-1320,254,153,1560,-388,5587,-3195,-4721,-3878,720,39,0
41801000,1655,-1552,-2,170,421,-5027,7723,-2951,-4965,-4057,720,0,199
41849000,1433,-1448,122,177,1121,-10031,11385,-1547,-4428,-1050,720,0,1119
41901000,1206,-1833,68,-109,1073,-6675,-2164,-754,-500,3739,720,1040,3080
41949000,1241,-2268,-24,-150,1523,-1487,-2225,-693,3309,6839,599,2320,4479
42001000,1499,-2931,132,-57,825,4738,-18338,-388,8100,11246,599,4200,6680
42049000,1815,-3897,-22,50,723,5104,-21451,1259,7516,10673,720,4279,7320
42101000,2161,-4323,-77,-129,1991,8583,-15225,649,6716,11270,720,4400,8080
42149000,2514,-4857,-169,-23,490,10353,-26090,-22,5839,11801,599,4400,8680
42201000,2738,-5446,127,63,1927,8034,-19986,100,4745,9821,599,4319,8719
42249000,2606,-5705,-155,38,1915,-1059,-19986,710,5396,9150,720,4440,8719
42301000,2320,-6165,38,-90,1224,1442,-25601,39,6358,7782,720,4440,8759
42349000,2234,-6338,29,139,1371,2968,-15836,466,6489,7463,720,4400,8840
42401000,2278,-6205,-77,-2,1770,5470,-19254,1076,6365,7903,720,4400,8840
42449000,2360,-6242,32,-80,1210,2297,-20169,1564,6132,7775,599,4400,8840
42501000,2333,-5977,-124,86,1792,2785,-16751,2541,5839,8228,599,4279,8719
42549000,2435,-5890,-78,63,991,2602,-22244,3395,5467,7163,720,4240,8280
42601000,2335,-5847,-119,-52,1164,-4050,-19681,3456,3433,5256,599,3480,7600
42649000,2058,-5671,66,105,509,-5820,-20780,2724,4044,5123,480,3440,7400
42701000,1990,-5524,-107,-100,786,-1120,-21878,1503,3627,2505,480,3199,6359
42749000,2115,-5175,-281,205,253,1625,-14737,2358,3338,83,599,3199,5280
42801000,2338,-4776,195,-85,1618,1564,-18643,1870,1984,-3528,599,2999,3599
42849000,2400,-4693,-51,75,-326,-3440,-16263,1137,-89,-6156,599,2360,2679
42901000,2340,-4092,-79,-36,1808,-5759,-7047,710,-182,-5437,599,2279,2279
42949000,2196,-3796,84,18,1888,-8017,-12784,1076,139,-4843,480,2279,2200
43001000,1814,-3742,-184,-91,855,-8750,-9549,2114,1395,-4506,480,2279,2239
43049000,1660,-3424,-98,-186,484,-4233,-7840,1320,1856,-4094,599,2279,2119
43101000,1838,-3365,-234,60,625,2602,-11319,1625,1323,-5777,599,2279,1440
43149000,2112,-3269,98,2,1105,1808,-5277,100,711,-6293,480,2320,1199
43201000,2170,-3013,-226,99,2201,-327,-3262,405,448,-6400,480,2320,880
43249000,2081,-3048,-145,-63,1835,832,-4971,-266,453,-6955,599,2239,720
43301000,2053,-2882,-205,140,1040,-22,-821,-998,1038,-7686,599,2400,320
43349000,2088,-2758,-33,-35,1025,1076,-1920,-1486,3119,-8199,599,3120,39
43401000,2249,-2570,-57,34,-457,4311,2047,-2646,7890,-7711,599,4879,0
43449000,2674,-2136,59,76,1501,7363,2535,-2707,10783,-6579,480,6199,0
43501000,2964,-2013,122,-83,1043,5654,643,-2829,11266,-6039,480,6719,0
43549000,3002,-1872,0,52,1730,5715,6563,-2402,11385,-5858,599,6800,-39
43601000,2988,-1578,-70,-71,1834,8949,5098,-3073,11194,-4854,599,6719,-39
43649000,3118,-1566,6,-60,214,10353,2779,-4599,10925,-4814,599,6719,-39
43701000,3410,-1421,116,-72,956,9926,6197,-3806,9928,-4383,480,6719,-39
43749000,3517,-1448,-4,-128,749,11330,3023,-4111,7828,-4498,599,6120,-80
43801000,3563,-1634,-109,138,-201,11635,5037,-3867,2750,-5143,599,4479,-80
43849000,3702,-1620,-24,-12,948,10292,5404,-3501,-105,-4982,599,3640,-39
43901000,3735,-1620,2,72,942,9987,4000,-2951,-5926,-4980,599,1760,-39
43949000,3690,-1474,44,-32,943,7668,6685,-2341,-6301,-4630,480,1600,-39
44001000,3488,-1360,-84,3,750,2846,8394,-1975,-7226,-4202,480,1080,-39
44049000,3199,-1221,81,123,799,-2158,8944,-510,-8297,-3850,599,480,-39
44101000,2796,-1094,297,41,1247,-5088,10042,-571,-8268,-3523,599,39,-80
44149000,2401,-1219,122,14,1823,-3562,8760,283,-7310,-3668,599,39,-39
44201000,2008,-1386,-21,-52,522,-3318,9371,466,-6025,-4398,480,0,-80
44249000,1827,-1374,90,14,2020,-4111,13826,222,-5577,-4396,599,0,-80
44301000,1672,-1403,-24,23,1378,-2402,10164,283,-5017,-4570,599,0,-119
44349000,1627,-1317,182,116,992,-4477,11873,832,-4906,-4280,599,0,-80
44401000,1436,-1223,195,142,2201,-8689,13094,1198,-4308,-3791,599,0,-39
44449000,1160,-1142,104,-131,223,-8506,10347,832,-3608,-3565,480,0,-39
44501000,1087,-1092,45,64,1373,-5698,11385,649,-3142,-3396,480,39,-39
44549000,1106,-1226,77,60,1742,-5088,9798,527,-3085,-3698,599,79,-39
44601000,1048,-1373,85,188,-134,-7041,10225,1198,-3026,-4119,599,39,0
44649000,985,-1155,178,118,1430,-8689,15352,2846,-2867,-3607,599,39,0
44701000,877,-1004,-20,173,-612,-9909,14193,3456,-2513,-3013,480,39,0
44749000,1006,-1043,-234,143,519,-8689,12362,3273,-2889,-2960,599,0,39
44801000,1586,-1075,57,19,633,-9726,12423,3212,-4760,-3227,599,0,0
44849000,1990,-1094,253,118,1007,-12107,13521,3579,-5766,-2927,599,39,120
44901000,1868,-1058,3,-103,-235,-12839,11934,3640,-5485,-2214,599,39,320
44949000,1626,-1136,147,58,1783,-11924,9859,2114,-4904,-1975,480,39,439
45001000,1424,-1445,-125,74,1198,-10459,3206,2358,-4274,-2177,480,0,720
45049000,1257,-1844,112,21,1264,-13877,2840,771,-3780,-3052,599,39,759
45101000,1021,-2367,62,-89,1119,-13327,-272,771,-2823,-4222,599,79,959
45149000,940,-2720,117,95,1618,-9299,93,161,-2732,-4533,599,39,1159
45201000,1002,-3089,-258,28,608,-8139,-2530,588,-3006,-4468,599,0,1600
45249000,1003,-3210,74,-121,1935,-8445,-4849,771,-1359,-3716,599,559,1960
45301000,1038,-3380,194,-188,1300,-3073,-5338,1198,1683,-2820,599,1600,2439
45349000,1274,-3591,-142,96,893,4372,-4483,1320,3415,-3248,599,2360,2479
45401000,1762,-3679,-145,-1,1598,8888,-6314,2236,9952,-3717,599,5079,2439
45449000,2167,-3562,166,-12,1554,8766,-2469,2419,12037,-3699,480,6120,2360
45501000,2497,-3445,111,70,81,9438,-5338,2419,10747,-4215,480,6080,2040
45549000,2789,-3386,44,79,1708,9377,-3079,2236,10001,-4721,599,6080,1840
45601000,2863,-3266,288,90,1448,2785,-4422,893,9529,-5240,599,6040,1519
45649000,2868,-3233,-42,50,522,4311,-4544,1625,9049,-6011,599,5880,1240
45701000,2952,-3294,-88,100,769,5654,-10831,588,6983,-6403,480,5280,1159
45749000,2896,-3462,-19,-33,1762,527,-10587,2846,6715,-7105,599,5160,1080
45801000,2778,-3352,-25,128,1657,5776,-6009,1259,7024,-7297,599,5120,920
45849000,2982,-3404,168,165,1510,7973,-12540,1381,6527,-7717,599,5120,799
45901000,2978,-3580,158,1,304,-2158,-11807,3456,6424,-8581,599,5120,720
45949000,2947,-3336,-33,-37,948,527,-3751,4555,6432,-7924,480,5079,759
46001000,2972,-3060,90,112,2081,-754,-9976,6752,6442,-6780,480,5120,799
46049000,2878,-3164,-97,47,303,-5332,-12723,9011,6655,-7293,599,5120,720
46101000,2673,-3075,-13,190,1721,-11374,-7047,8828,7339,-7787,599,5120,480
46149000,2352,-2746,65,103,894,-12229,-2774,7546,8298,-7134,599,5160,439
46201000,2077,-2565,-55,39,1841,-14426,-2713,6203,11526,-6377,480,5920,439
46249000,1946,-2456,155,76,1294,-8811,-6131,6630,11627,-6290,599,5840,360
46301000,2012,-2515,-98,252,1062,-5698,-5521,6264,11721,-7546,599,5920,0
46349000,2161,-2369,133,134,1243,-6064,-4178,7241,11300,-7205,599,5920,0
46401000,2064,-2264,122,72,1062,-11252,-6314,5410,11446,-6792,599,5880,0
46449000,2213,-2156,36,101,604,3884,-3812,5776,11313,-6560,480,5920,0
46501000,2935,-2106,-10,162,1354,10719,-3507,4616,11114,-6319,480,6640,0
46549000,3296,-2198,1,228,1225,-3684,-8206,5043,13615,-6629,599,7839,-39
46601000,3118,-2238,58,-101,1288,-3684,-8267,2968,19083,-6834,599,9480,-39
46649000,3432,-2079,-63,56,959,13039,-1554,3640,20723,-6553,599,10240,-80
46701000,4172,-1753,172,135,746,17128,2840,2663,18682,-7420,480,10400,-720
46749000,4538,-1715,-72,-27,1729,8095,-3201,2419,17608,-7734,599,10400,-880
46801000,4214,-1778,35,-63,1823,-2707,399,893,18795,-7856,599,10480,-839
46849000,4016,-1553,199,185,1852,6203,4610,1931,19623,-6238,599,10559,-479
46901000,4266,-1486,122,-66,1254,14076,-3385,1503,18879,-4819,599,10559,-119
46949000,4649,-1528,-180,104,536,17067,2840,1015,18091,-5208,480,10599,-160
47001000,5002,-1181,146,177,1382,16091,3450,-205,16672,-3905,480,10559,-119
47049000,5379,-1235,179,-95,951,16823,-577,-22,15846,-4001,599,10599,-119
47101000,5764,-1222,-84,76,918,21034,3450,-83,17507,-4027,599,11600,-119
47149000,6163,-954,-143,-2,1147,26161,643,893,19320,-3251,480,12520,-80
47201000,6603,-594,168,169,1175,23659,9554,466,17990,-2144,480,12600,-119
47249000,6793,-268,104,-48,0,16274,1680,893,17738,-1566,599,12679,-199
47301000,6756,-300,343,87,1372,12367,-2774,1442,17651,-1500,599,12639,-199
47349000,6668,-602,53,-52,780,14931,-5460,1870,17899,-2073,599,12639,-160
47401000,6775,-1122,-35,86,2146,15297,-6192,2114,16753,-3728,599,12360,-119
47449000,6650,-1371,102,234,82,9804,-2591,710,13728,-4453,480,11240,-119
47501000,6582,-1345,72,42,356,4189,338,283,14091,-4395,480,11280,-119
47549000,6612,-1200,27,98,413,8522,154,1442,13991,-3960,599,11280,-80
47601000,6447,-1119,-4,117,-199,4189,-760,-144,14377,-3597,599,11240,-80
47649000,6071,-1152,-30,33,548,-754,-5460,588,15460,-3661,480,11280,-80
47701000,5774,-1084,73,48,759,3700,826,-815,16517,-3373,480,11280,-39
47749000,5792,-863,28,22,801,8644,-1370,-1303,16483,-2991,599,11280,-119
47801000,5841,-917,-44,189,709,6264,-4910,-1120,16194,-3112,599,11240,-119
47849000,5838,-743,-35,59,771,4555,1925,-1669,16303,-2570,599,11280,-80
47901000,5648,-829,-49,160,1143,1442,-7779,-632,16774,-2728,599,11240,-80
47949000,5407,-1277,69,-61,1697,405,-7535,-1303,17370,-4023,480,11240,-119
48001000,5169,-1291,-237,-118,1481,4860,3328,-1303,18451,-4233,480,11320,-119
48049000,5149,-1302,301,165,1262,6874,-4239,39,18373,-4178,599,11280,-119
48101000,5040,-1515,-82,-50,334,3334,-150,-327,18718,-4906,599,11280,-119
48149000,5006,-1409,48,235,775,6752,2779,-1486,18893,-4502,480,11280,-80
48201000,5101,-1421,-39,33,876,7607,-2835,-22,18536,-4503,480,11280,-80
48249000,5170,-1319,-77,50,520,7973,4305,-388,18371,-4552,599,11280,-160
48301000,5301,-1089,373,188,1443,6752,-638,-22,19734,-3628,599,11879,-119
48349000,5367,-1323,-91,1,859,9804,-6497,1137,20424,-4057,599,12160,-80
48401000,5726,-1257,103,118,390,12001,1925,2297,21581,-4131,599,12920,-119
48449000,6245,-1075,234,133,1480,16640,-211,3151,20454,-3621,599,13000,-119
48501000,6436,-1150,86,90,627,10048,887,3518,20650,-3690,599,13320,-80
48549000,6368,-1102,-72,206,1282,6996,6990,3090,22051,-3620,599,13719,-80
48601000,6384,-788,38,145,887,9438,11690,2541,23805,-2606,599,14320,-80
48649000,6494,-553,-158,39,1732,11269,9310,1931,24613,-1969,480,14679,-80
48701000,6594,-381,114,154,1424,5776,11934,771,25577,-1384,480,15120,-80
48749000,6558,-285,51,-2,1481,3212,9493,649,25958,-1094,599,15240,-80
48801000,6551,-184,240,194,2201,3822,13704,405,26545,-913,599,15400,-119
48849000,6467,-227,123,-57,1879,4433,6380,771,26490,-793,599,15320,-80
48901000,6343,-606,41,234,103,3945,3450,100,26809,-2058,480,15280,-80
48949000,6233,-640,152,71,2057,221,11263,1320,27053,-2203,599,15280,-80
49001000,6145,-630,211,199,339,3151,6075,-449,27522,-2130,599,15320,-80
49049000,6382,-870,24,93,576,10109,4915,1259,27096,-2609,599,15360,-39
49101000,6653,-977,59,149,1416,5898,7174,405,24678,-3053,599,14879,-39
49149000,6647,-971,144,289,323,-2280,8883,893,24391,-3028,480,14800,-39
49201000,6650,-864,44,234,993,-4599,9249,-327,23727,-2712,480,14560,-39
49249000,6757,-791,72,254,919,-2036,9249,1503,22808,-2521,599,14360,-39
49301000,6748,-607,4,164,2003,-4599,10408,710,21874,-1942,599,14040,-39
49349000,6680,-485,-2,147,479,-5088,8883,-449,19661,-1652,480,13239,-39
49401000,6624,-404,171,173,1499,-7346,9371,161,18166,-1332,480,12679,-39
49449000,6595,-427,-58,168,1040,-7590,1619,-632,17998,-1433,599,12600,-80
49501000,6531,-578,85,225,2172,-4660,5709,-2646,17965,-1854,599,12520,-39
49549000,6303,-665,175,243,1352,-10398,2840,-1242,18499,-2023,599,12520,-39
49601000,5880,-692,-226,217,-318,-19553,2718,-3501,19917,-2198,599,12520,-39
49649000,6015,-494,48,223,2201,-11985,2535,-1486,20149,-1630,480,12679,-39
49701000,6511,-233,116,114,1716,-3562,4854,-1975,19345,-819,599,12960,-39
49749000,6946,-9,-161,266,485,-6675,3695,-693,18147,-434,599,12920,-80
49801000,7835,354,70,191,184,-4355,-394,-998,15253,1062,720,12920,0
49849000,8364,310,-111,164,1357,-266,-1492,-510,13519,1067,599,12839,0
49901000,8456,39,89,201,581,-5820,1070,-1242,12669,119,599,12679,0
49949000,8660,-29,-29,160,1801,-7041,582,-1120,11940,-119,720,12639,-39
50001000,8455,-403,-181,194,1175,-4599,-3629,-1303,12552,-1449,720,12639,-80
50049000,8452,-663,-17,-38,1147,-6980,1070,-1669,12416,-2038,720,12600,-39
50101000,8192,-676,-94,430,-178,-8567,5281,-754,12503,-2148,599,12360,-39
50149000,8475,-562,-130,-4,-189,-8628,582,-2036,11046,-1874,959,12080,-39
50201000,9371,-8,-447,272,-76,-10276,8150,-2097,7884,-144,1560,12000,-39
50249000,10325,707,-178,48,839,-9726,-2347,-2707,5067,1928,1799,11919,0
50301000,10680,873,54,90,2096,-11557,-5826,-1608,3597,2619,1920,11879,0
50349000,10087,622,145,53,928,-16684,-5216,-2463,4838,2068,1799,11840,0
50401000,9219,113,-109,244,2091,-14731,-8084,-2463,6901,461,2039,11519,39
50449000,8414,-415,-81,44,2201,-13266,-10892,-4965,8894,-939,2279,11519,0
50501000,7466,-1028,119,93,428,-15036,-4727,-5393,11800,-3085,2279,11400,0
50549000,6980,-1124,-64,125,1200,-6308,399,-4843,12975,-3353,2160,11359,0
50601000,6864,-1028,-3,156,824,-3989,582,-2463,13487,-2966,2279,11359,39
50649000,6840,-778,45,144,704,-10764,1314,-4355,13424,-2617,2400,11320,-39
50701000,6799,-768,75,34,1183,-12595,-6497,-3012,13561,-2304,2519,11320,0
50749000,6911,-829,183,213,536,-388,1558,-4477,13375,-2525,2400,11320,0
50801000,7338,-779,155,216,1791,1137,-1554,-2646,11944,-2339,2400,11320,0
50849000,7486,-807,-273,244,-754,-6003,887,-2036,11563,-2599,2279,11320,-39
50901000,8040,-279,136,280,-88,-7285,2535,-2158,9837,-1079,2400,11320,-80
50949000,8600,-163,21,199,2201,-1303,-2347,-2036,8196,-671,2400,11280,-80
51001000,8642,-300,-246,383,857,-3196,1497,-3989,8151,-1020,2400,11359,-39
51049000,8826,-191,-167,-15,463,-3073,3084,-2463,9096,-805,2279,11800,-39
51101000,9370,345,-65,395,-241,-3928,4915,-3989,7888,917,2279,12000,-39
51149000,10027,667,-78,57,93,-9055,-4971,-2097,6102,1636,2400,12000,-119
51201000,10518,774,-121,18,828,-12168,-3507,-2524,4564,2082,2400,12040,-80
51249000,10998,788,-154,274,815,-3073,-3690,-5087,3252,2312,2279,12000,-39
51301000,11281,737,174,204,1636,-6491,-2835,-4294,2154,2091,2160,12000,-39
51349000,11212,680,78,132,1228,-8017,-7352,-2890,2172,1986,2279,11960,-39
51401000,10860,342,95,96,2173,-6675,-10953,-3439,3417,788,2279,12000,-80
51449000,10514,125,4,150,1292,-7407,-6009,-4782,3986,443,2279,11919,0
51501000,10049,-64,60,185,165,-7285,-9305,-4355,5730,-193,2279,11960,0
51549000,9736,-263,-22,114,739,-6552,-8084,-3928,4950,-727,2160,11440,0
51601000,9366,-264,-41,237,912,-3257,-455,-3073,1181,-913,2160,9760,-39
51649000,9019,-153,-76,196,-343,-10886,-2652,-2829,-1327,-584,2279,8640,-39
51701000,8606,-391,-214,117,351,-9116,-8084,-1364,-6258,-1174,2279,6519,0
51749000,8114,-537,100,60,904,-14182,-5460,-3623,-9736,-1569,2279,4960,0
51801000,7467,-434,-37,46,1686,-18332,2169,-3012,-9323,-1303,3119,4360,0
51849000,6790,-325,-51,73,1379,-19614,-5765,-3256,-7691,-949,4920,4319,0
51901000,6564,-485,89,220,1573,-1975,-5826,-5454,-6733,-1575,10200,4319,-39
51949000,6394,-568,255,235,2170,-11191,277,-8689,-6545,-1581,12599,4279,39
52001000,5830,-554,-246,112,-13,-10031,1986,-12351,-4652,-1662,15480,4279,0
52049000,5864,-545,-121,47,1232,-4538,-4117,-13022,-4726,-1642,15240,4279,-39
52101000,5992,-1055,-89,117,-106,-5698,-11380,-11313,-5017,-3287,13679,4319,-39
52149000,5984,-1121,-126,165,1459,-4599,2108,-13938,-4448,-3543,13200,4519,-39
52201000,6060,-772,10,80,-533,-3562,3206,-13754,-3542,-2317,13200,4879,0
52249000,6485,-529,-123,133,104,-6308,-5887,-14304,-4312,-1669,12960,4960,0
52301000,6805,-528,206,132,2078,-7346,-1615,-15280,-5415,-1465,13080,5000,39
52349000,6607,-662,-272,136,588,-3806,-5460,-15463,-4162,-1911,12720,5239,0
52401000,6641,-854,-41,204,335,-3928,-9000,-13999,-1805,-2684,10919,6040,-39
52449000,6746,-906,-172,32,643,954,-2652,-13327,433,-2760,7920,6879,0
52501000,6965,-852,8,48,544,4189,-6253,-10886,1544,-2556,4440,7479,0
52549000,7202,-765,-309,223,1292,3822,-1798,-8689,3619,-2555,2400,8360,-39
52601000,7527,-649,159,-96,306,9072,-5338,-8383,4058,-2069,599,8880,-39
52649000,8002,-549,39,81,850,15541,-333,-5942,2870,-1747,599,8880,0
52701000,8357,-536,133,212,1525,13100,-8939,-5332,2046,-1610,599,9040,0
52749000,8447,-821,198,-103,1291,12062,-10159,-5210,1754,-2298,599,9040,0
52801000,8388,-869,69,115,2154,10109,-943,-3928,2195,-2729,720,9119,-39
52849000,8382,-733,-64,206,-442,9194,-3018,-3317,2299,-2357,720,9119,0
52901000,8568,-619,199,244,2201,10964,-5399,-2402,1655,-1859,720,9119,0
52949000,8391,-815,-194,-33,-630,11696,-5582,-2158,2252,-2414,599,9159,0
53001000,8662,-653,-90,109,722,13710,-4483,-1853,1731,-1840,599,9240,39
53049000,9433,-95,-64,207,-960,21645,1497,-2402,7,-786,720,9240,-39
53101000,10754,754,-16,168,1362,18776,-1187,-1181,-4423,2142,720,9280,-39
53149000,11038,980,110,-86,1765,5043,-2469,-1364,-5437,2918,599,9240,0
53201000,10659,819,-63,26,2201,3578,-3690,-1181,-3659,2458,599,9440,0
53249000,10009,445,5,213,152,4860,-2896,-1914,-1656,1428,720,9519,0
53301000,9896,493,1,120,1700,13832,-1248,-1364,-1130,1481,720,9519,0
53349000,9652,240,-57,-30,507,14321,-5399,-998,-488,968,720,9519,39
53401000,9250,-124,166,3,283,10964,-2103,-327,809,-372,720,9519,0
53449000,8899,-391,46,72,1157,15785,2962,-449,1629,-1088,599,9480,0
53501000,8672,-757,-9,136,1477,18105,-89,1747,2303,-2392,720,9440,-39
53549000,8515,-1015,212,112,-14,13222,1314,344,2760,-2971,720,9480,0
53601000,8145,-1175,-116,26,321,7424,3206,649,4002,-3527,720,9480,0
53649000,7685,-1105,38,139,814,2052,7784,1686,5145,-3361,599,9480,0
53701000,7293,-1074,-113,76,516,7973,2779,588,6438,-3222,599,9440,0
53749000,7408,-1133,-146,128,-585,18044,2474,1564,6465,-3353,720,9519,0
53801000,7779,-1033,11,203,1095,19142,5648,710,4620,-3100,1320,9320,0
53849000,7956,-938,-4,-80,-82,12856,5281,1564,2155,-2839,1199,8680,0
53901000,7770,-763,196,106,579,649,9615,344,-870,-2291,1199,7479,0
53949000,7238,-586,50,32,2201,-6919,9615,649,-1228,-1826,1320,6919,0
54001000,6742,-570,-26,114,372,-6675,4671,222,-1627,-751,1560,6199,320
54049000,6546,-660,-32,112,1900,649,9066,-205,-4992,302,1439,4920,759
54101000,6281,-689,-35,21,737,-1853,6380,283,-6123,1891,1199,4240,1319
54149000,5988,-843,11,250,883,-6308,4122,1015,-8024,2336,839,3359,1600
54201000,5648,-857,-29,-86,605,-9482,10408,1015,-8425,3547,839,2839,2040
54249000,5338,-824,-81,183,909,-8994,5465,-266,-8448,4163,839,2560,2200
54301000,5142,-1046,1,-29,725,-10398,6014,-632,-7868,3940,720,2520,2360
54349000,5079,-1018,-72,236,583,-8017,8577,-1181,-7737,4992,599,2520,2679
54401000,5101,-1120,183,167,532,-7956,2962,-205,-7743,5879,599,2520,3080
54449000,4965,-1200,-99,-103,592,-9299,7906,-632,-7447,6623,720,2520,3399
54501000,4734,-1395,123,134,1332,-11130,-943,-1364,-6644,8414,720,2520,4200
54549000,4620,-1785,-189,142,540,-10825,-2225,-22,-6308,9202,720,2520,4800
54601000,4769,-1762,-47,36,742,-9238,2108,283,-6747,10073,599,2520,5120
54649000,4990,-1869,150,50,1519,-9665,-8512,649,-7344,10410,720,2520,5280
54701000,4976,-2220,75,28,793,-12412,-1920,2541,-7369,9417,720,2520,5360
54749000,4840,-2151,29,58,133,-11496,1375,1809,-6916,10906,720,2560,5799
54801000,4723,-2243,-82,263,965,-10764,-4544,2724,-6491,11990,720,2560,6240
54849000,4726,-2438,237,119,1124,-7407,-6741,2663,-6628,12961,599,2479,6719
54901000,5251,-2488,63,157,1203,-327,-3934,2419,-8194,14255,599,2520,7240
54949000,5538,-2652,-168,85,119,-2646,-8573,2114,-8953,14641,720,2520,7479
55001000,5487,-3066,211,-118,756,-5515,-11319,710,-8783,14681,720,2560,7960
55049000,5289,-3444,190,188,463,-4050,-9122,283,-8417,15521,599,2520,8559
55101000,5326,-3968,91,-65,1251,99,-16751,-22,-6378,14015,599,3199,8640
55149000,5234,-4407,306,21,950,-2158,-12174,-998,-3228,12865,720,4200,8640
55201000,4996,-4747,43,140,1870,1564,-13211,39,-2268,11677,720,4240,8640
55249000,4864,-4952,140,103,1847,3090,-11197,161,-1799,11239,720,4279,8680
55301000,4862,-4888,-16,230,1196,2663,-6070,-571,-1747,11374,599,4279,8680
55349000,4981,-4691,38,80,1955,8400,-6619,-632,-2103,11732,720,4240,8640
55401000,5309,-4449,-47,-66,1582,10781,-7169,-266,-2849,12690,720,4360,8680
55449000,5518,-4195,76,-10,-183,3945,-5582,-632,-3576,13303,720,4319,8680
55501000,5525,-3944,-153,72,1403,2175,-6070,-510,-3495,14207,720,4360,8680
55549000,5617,-3785,151,100,1742,6996,-4910,39,-3578,14492,599,4400,8640
55601000,5800,-3729,81,-92,-11,6081,-8389,527,-4200,14612,599,4400,8599
55649000,5959,-3767,138,87,1339,7179,-7657,-144,-4622,14663,1679,4400,8640
55701000,6111,-3701,60,-125,1474,7363,-3079,-1669,-5135,14816,4080,4400,8640
55749000,6225,-3680,109,58,1371,5531,-5887,-3501,-5587,14915,4200,4360,8640
55801000,6161,-3860,27,60,1427,2358,-10220,-4111,-5283,14337,4200,4400,8640
55849000,5848,-4093,130,245,976,-3440,-5887,-4050,-4403,13714,3719,4440,8640
55901000,5546,-4140,214,221,590,-1364,-5521,-3501,-3440,13379,3719,4400,8599
55949000,5551,-4207,123,-23,1017,4982,-4666,-2463,-3510,13311,3600,4360,8640
56001000,5860,-4135,111,254,848,10170,-638,-1364,-4381,13633,3600,4400,8680
56049000,6220,-4024,62,10,67,9499,-516,100,-5184,13680,3719,4440,8599
56101000,6376,-3989,139,164,2201,7179,-272,-2097,-6048,13831,3719,4360,8599
56149000,6270,-3975,26,-102,349,2236,277,-2585,-5935,13861,3719,4319,8599
56201000,6153,-3959,15,143,834,4372,-577,-3684,-5501,13802,3719,4319,8559
56249000,6222,-3897,47,144,1270,588,-882,-3134,-5640,13950,3359,4319,8559
56301000,6472,-3807,176,116,1535,2236,1741,-3378,-6337,14138,2519,4360,8520
56349000,6498,-3426,127,40,532,-571,8516,-2463,-6605,15085,2400,4319,8520
56401000,6335,-3178,-38,262,757,-3379,887,-2097,-6046,15905,2400,4319,8480
56449000,5975,-3308,78,174,598,-14426,-3568,-2951,-5403,15345,2279,4240,8400
56501000,5564,-3215,252,61,611,-10276,3817,-3317,-3974,15433,2400,4240,8360
56549000,5568,-3135,26,32,1203,4372,-943,-3317,-4223,14764,2279,4119,8039
56601000,5834,-3503,49,224,1275,5348,-5521,-2341,-7542,12289,2160,3320,7600
56649000,5730,-3628,-56,367,408,-6736,2230,-1425,-7727,11341,2279,3199,7400
56701000,5315,-3671,197,95,1136,-10398,1619,-2280,-6345,11184,2400,3199,7400
56749000,5327,-3678,116,-120,1629,3090,11934,-2768,-6499,11026,2279,3120,7400
56801000,5576,-3034,178,89,251,2114,21273,-998,-7250,13096,2400,3159,7400
56849000,5510,-2882,243,89,795,-266,5709,-2646,-7268,13631,2160,3120,7400
56901000,5203,-3143,143,117,1455,-2463,10714,-4416,-6129,12770,2160,3159,7400
56949000,5043,-3061,208,83,498,2480,15169,-2402,-5561,12736,2279,3199,7320
57001000,5195,-3309,21,197,764,2907,2535,-1486,-5987,12150,2279,3199,7360
57049000,4971,-3730,-1,161,2157,-6675,6258,-2402,-5592,11026,2279,3159,7360
57101000,4803,-3519,187,104,1055,466,21395,-2707,-4810,11522,2279,3199,7360
57149000,4926,-3159,-10,96,941,4616,16207,-1853,-5074,12672,2160,3199,7400
57201000,4967,-3293,55,-7,1308,1503,8150,-3134,-5303,12200,2160,3199,7360
57249000,5016,-3309,181,-49,1575,5715,11019,-3806,-5367,12114,2279,3199,7360
57301000,5166,-3307,52,-23,1618,8400,9188,-4111,-6620,12636,2279,2960,7520
57349000,5110,-3509,55,73,1537,1320,6075,-4233,-8465,14902,2279,2320,8440
57401000,4864,-3741,-8,-44,1094,3395,5098,-4904,-7632,16135,2039,2320,9119
57449000,4788,-3915,55,171,520,3517,3267,-4660,-7531,17318,1199,2279,9639
57501000,4611,-4381,135,280,1230,-1059,-2774,-3623,-6874,17214,1199,2320,10120
57549000,4424,-4753,247,240,636,-2829,-760,-3134,-5907,17095,1320,2479,10400
57601000,4465,-5008,-102,302,38,1503,-1798,-83,-4997,17614,1320,2799,10880
57649000,4455,-5248,117,202,754,-2707,-2164,-998,-5053,17147,1199,2799,10920
57701000,4519,-5435,143,217,1246,-205,643,-2158,-5158,16934,1199,2799,11080
57749000,4632,-5438,223,84,2201,-1670,3206,-2707,-5516,17272,1439,2799,11199
57801000,4590,-5653,359,-141,548,-10031,-5521,-1425,-6811,16638,1560,2320,11199
57849000,4391,-5859,248,-31,1524,-4843,1558,-2402,-8398,16182,1560,1600,11240
57901000,4396,-6216,135,68,2142,-998,-6375,-1364,-12350,15069,1679,280,11240
57949000,4274,-6550,-67,180,995,-6430,643,-2707,-12709,14111,1320,39,11240
58001000,3893,-6333,15,-27,1317,-13572,4427,-2646,-11801,14720,599,-39,11240
58049000,3698,-6220,-48,51,1369,-10154,-2835,-2829,-11025,15060,720,39,11240
58101000,3552,-6272,237,255,1314,-11985,-2652,-1975,-10537,14781,720,39,11199
58149000,3426,-6228,214,43,443,-14853,-3446,-1242,-10331,15040,720,0,11240
58201000,3362,-6245,222,131,2201,-12778,-6314,-2463,-10086,15104,839,0,11280
58249000,3315,-6125,100,-35,527,-12534,-1065,-2524,-9963,15481,720,0,11320
58301000,3370,-6036,33,125,1043,-10215,-5948,-2707,-10111,15971,720,0,11359
58349000,3536,-6098,68,128,-363,-12168,-6070,-2219,-10564,16271,959,0,11519
58401000,3525,-6130,178,231,185,-16867,-5521,-2646,-10456,16529,1080,39,11640
58449000,3440,-6185,-19,119,1375,-11740,-7779,-2341,-10300,16433,1080,0,11640
58501000,3566,-6254,-47,254,2049,-9909,-8084,-2402,-10700,17237,1080,0,12000
58549000,3641,-6233,297,-64,1284,-15219,-8023,-2341,-10921,17661,959,0,12119
58601000,3570,-6286,225,193,8,-16989,-9793,-2097,-10592,17501,959,39,12119
58649000,3536,-6394,132,144,1163,-10215,-10343,-1669,-10333,17239,1199,79,12119
58701000,3586,-6524,297,35,2201,-11557,-9366,-998,-10638,16425,1199,39,12000
58749000,3462,-6576,-13,-100,831,-13633,-8023,-1425,-10144,16259,1560,120,12000
58801000,3369,-6693,192,121,1463,-12229,-11075,-2219,-7707,16039,1920,799,12040
58849000,3505,-6868,184,133,2201,-6064,-9183,-2280,-6143,15629,1799,1400,12040
58901000,3754,-6962,111,-105,2201,-2524,-8206,-1364,-4303,14751,1920,2320,11879
58949000,3998,-7022,148,112,1187,-4355,-8389,-2158,939,13279,1920,4279,11440
59001000,4140,-7055,-37,127,29,-1364,-7901,-2341,5339,11833,1920,5920,10999
59049000,4481,-7031,168,-61,1667,5348,-4056,-3806,6093,11618,1920,6440,10920
59101000,5033,-6855,121,99,-255,12306,-272,-3867,5900,10154,1799,7000,10240
59149000,5665,-6665,198,194,-604,11574,-882,-3317,5123,9809,1799,7279,9960
59201000,6107,-6466,25,63,1502,10170,-2042,-3195,3877,10121,1799,7400,9840
59249000,6300,-6360,-17,-27,-187,9072,-2042,-4111,3646,10378,1799,7479,9840
59301000,6508,-6171,99,-16,504,11757,-28,-5820,2914,10885,1799,7479,9800
59349000,6611,-6100,257,28,38,6874,-3812,-5515,2853,11352,1679,7560,9879
59401000,6597,-6169,78,211,2027,6691,-3201,-6552,2887,11252,1679,7560,9920
59449000,6576,-6151,-186,125,549,9072,-3812,-6430,2936,11219,1799,7560,9879
59501000,6581,-6361,170,160,774,9865,-8817,-6247,3296,10555,1560,7679,9879
59549000,6544,-6423,66,97,601,10292,-760,-7468,3655,10449,1439,7760,9920
59601000,6525,-6286,-12,-160,735,12734,-150,-5942,4422,10901,599,7999,9920
59649000,6633,-6457,102,203,1010,17372,-3873,-6125,4656,10510,480,8160,9920
59701000,6725,-6583,236,208,802,15541,1314,-6064,4783,9888,480,8320,9879
59749000,6865,-6685,-24,198,263,15602,-455,-5637,4580,9657,599,8360,9879
59801000,6800,-6613,46,217,1354,9621,3328,-5942,5399,9678,599,8599,9840
59849000,6574,-6351,2,38,522,11330,643,-5576,5981,10501,599,8599,9879
59901000,6576,-6255,-3,126,-206,16335,-2164,-5332,6189,10872,599,8640,9879
59949000,6752,-6218,132,-5,498,16945,-4422,-5820,6075,10950,480,8759,9879
60001000,6872,-6131,35,151,584,12917,-4178,-5026,5902,11245,480,8840,9879
60049000,6768,-6023,231,52,1459,7118,-5216,-5881,6604,11401,599,9000,9840
60101000,6502,-6150,-85,-114,310,5165,-7962,-5759,7853,11188,599,9119,9879
60149000,6326,-6289,-39,152,1331,8278,-7108,-5332,8213,10740,599,9080,9879
60201000,6283,-6236,105,-114,1125,8217,-5460,-3684,8510,9971,599,9119,9560
60249000,6305,-6339,49,84,1632,13161,-7291,-4172,8523,9439,480,9119,9440
60301000,6405,-6662,416,50,1511,12367,-5033,-4050,8143,7611,480,9119,9200
60349000,6557,-6759,-147,136,429,15114,93,-2585,7829,7450,599,9119,9240
60401000,6766,-6790,239,206,2178,16396,-699,-4843,7061,6749,599,9119,9040
60449000,6982,-6689,94,182,883,15175,-272,-5759,6397,6621,480,9080,8920
60501000,7196,-6476,-64,151,393,15541,-2042,-5454,2651,6611,480,8080,8680
60549000,7354,-6150,0,28,481,11818,3206,-5332,-71,7263,599,7320,8640
60601000,7427,-5806,128,24,-93,12367,-1981,-4843,-6563,8141,599,5239,8520
60649000,7279,-5673,129,320,1525,5165,-211,-5026,-7782,8337,599,4719,8480
60701000,6920,-5494,122,43,1031,-4477,-1737,-5087,-10440,3797,599,3440,6760
60749000,6524,-5327,203,120,1412,-5454,3756,-5881,-15561,-167,480,1400,5320
60801000,5872,-4812,69,255,1060,-13633,12239,-6125,-16296,683,480,439,5039
60849000,5265,-4668,135,-5,1069,-12717,887,-6491,-15797,115,480,79,4679
60901000,5166,-4973,4,336,1751,-2585,3145,-5698,-15499,-1239,480,0,4560
60949000,4829,-5018,156,44,1001,-24009,3389,-4965,-14878,-1338,480,0,4560
61001000,3997,-5141,-56,96,442,-21872,399,-6247,-11871,-1624,480,39,4600
61049000,3854,-5208,102,138,1191,-6858,1436,-4355,-11367,-1721,599,39,4640
61101000,3875,-5077,369,234,2186,-15769,10103,-3195,-11627,-1313,599,0,4640
61149000,3473,-4988,13,146,1699,-23642,8089,-1669,-10426,-1336,359,79,4560
61201000,2918,-4862,124,-31,2118,-18332,5831,-2585,-8636,-1028,359,39,4519
61249000,2917,-5246,-35,68,1259,-11557,-6070,-2890,-8555,-1994,480,39,4479
61301000,3109,-5565,73,145,872,-11374,3389,-754,-9208,-3376,599,39,4440
61349000,3083,-5539,19,52,-157,-17356,8455,-815,-9190,-3356,599,39,4440
61401000,2871,-5127,164,-3,651,-18637,16024,-144,-7654,-2423,-1679,320,4319
61449000,2637,-5061,229,-17,719,-21506,2657,1320,-5837,-2366,-8400,720,4240
61501000,2648,-5362,255,-20,2201,-14426,6563,5898,-5185,-3848,-15239,920,4080
61549000,2794,-5286,-106,71,584,-8567,5648,10170,-5279,-3729,-17999,999,4040
61601000,3255,-5416,328,64,949,-6491,4610,12123,-6766,-4489,-17640,999,3919
61649000,3424,-5274,27,149,207,-9604,11934,13466,-7297,-4758,-14760,959,3719
61701000,3662,-5154,-35,-10,966,-1609,9615,10231,-7987,-4064,-10559,999,3800
61749000,4127,-5027,371,-9,780,2297,10286,10109,-9128,-3788,-10679,999,3800
61801000,4487,-4974,130,-68,242,771,8760,10048,-10462,-3524,-8160,999,3800
61849000,4447,-4989,-20,8,1252,-9726,8577,9194,-10367,-3569,-6359,1040,3800
61901000,4025,-4946,16,-37,534,-10093,14376,8034,-8235,-3438,-3359,1280,3800
61949000,4278,-4727,-176,106,-346,8339,15047,5349,-7573,-2899,-3359,1640,3800
62001000,5224,-4729,118,56,2201,14198,8577,4128,-9313,-2908,-3359,2119,3759
62049000,5552,-4797,403,7,1815,7668,11934,5715,-9703,-2966,-5159,2320,3800
62101000,5420,-4866,-147,169,516,4067,9737,8644,-8942,-3199,-7919,2439,3800
62149000,5192,-5047,186,311,953,4616,3145,9621,-8376,-3618,-11279,2439,3800
62201000,4958,-5252,197,172,491,405,5342,11879,-7436,-4477,-14159,2479,3759
62249000,4850,-5251,123,128,110,4067,6258,13832,-7079,-4459,-14159,2479,3759
62301000,5194,-5334,2,111,1931,12612,5648,13222,-8383,-4722,-13080,2400,3759
62349000,5384,-5372,-6,85,871,6813,8821,12490,-11897,-4229,-11520,1400,3959
62401000,5268,-5325,-56,276,1528,3822,6929,11391,-12206,-3375,-6239,1199,4200
62449000,5158,-5308,216,191,765,3822,6624,7241,-11903,-3558,-2279,1199,4119
62501000,5039,-5282,292,-47,645,2785,8577,4555,-11637,-3608,-119,1159,4080
62549000,4876,-5244,308,-107,1147,-510,6136,3334,-11003,-4338,240,1240,3800
62601000,4593,-5280,292,-38,895,282,4549,1503,-8979,-6120,240,1600,3239
62649000,4470,-5270,110,30,797,4372,6075,1625,-8521,-6613,240,1640,3080
62701000,4729,-5189,54,75,1735,12551,8150,832,-9027,-6449,359,1719,3039
62749000,4972,-5187,-31,18,586,10109,3389,1259,-9575,-6524,480,1760,2999
62801000,4954,-5175,24,59,761,7790,5342,954,-9462,-6525,480,1800,2999
62849000,4810,-4999,-35,-22,925,6996,3267,893,-9066,-5928,359,1800,3039
62901000,4746,-5167,223,60,1757,9926,-3995,-754,-8839,-6382,359,1800,3039
62949000,4811,-5297,169,128,570,6386,1986,771,-9039,-6772,359,1800,3039
63001000,4552,-5363,172,99,1252,-1792,-516,1076,-8256,-6971,480,1800,3039
63049000,4353,-5458,189,98,2201,4494,1009,-205,-7840,-7385,359,1760,2999
63101000,4427,-5399,20,66,-463,3761,1680,1747,-8121,-7077,359,1719,3039
63149000,4331,-5455,180,18,661,-2097,-3629,1137,-8282,-7160,359,1600,3039
63201000,4158,-5417,-9,-39,1576,-3073,4732,1809,-8874,-7131,359,1199,3039
63249000,3878,-5107,72,-89,937,-3928,3939,1442,-9454,-6290,359,759,3039
63301000,3740,-5116,309,87,1691,-1364,-5704,161,-11220,-5389,359,0,3320
63349000,3591,-5328,-34,245,582,-4905,-4178,1381,-10615,-5953,359,79,3320
63401000,3445,-5328,156,279,1452,-3623,-882,1442,-10217,-5906,359,39,3359
63449000,3518,-5215,155,150,2201,1625,826,2541,-10472,-5420,359,0,3440
63501000,3587,-5142,-69,-96,1375,-2158,-5582,3640,-10883,-4148,359,-39,3759
63549000,3541,-5299,126,-17,438,-937,-6009,2297,-10623,-4182,359,0,3880
63601000,3589,-5353,197,88,607,-3135,-5460,3151,-10768,-3579,359,0,4159
63649000,3477,-5345,150,164,-18,-8261,-455,2480,-10503,-3237,359,0,4279
63701000,3430,-5196,52,24,1989,-7407,-4666,3090,-10292,-1789,359,0,4600
63749000,3187,-5359,15,-40,760,-16196,-14310,3640,-9694,-1574,359,0,4800
63801000,2998,-5542,95,-102,862,-6491,-7352,3334,-8995,-2227,480,0,4800
63849000,3097,-5616,42,-120,1004,-8200,-11685,4372,-9308,-2466,480,0,4760
63901000,2865,-5807,-12,67,2005,-7224,-4727,4128,-8596,-3262,240,0,4719
63949000,2841,-5577,-103,174,1443,-4966,-5338,5471,-8536,-2493,359,0,4760
64001000,2674,-5633,-124,100,328,-4660,-13394,3029,-8024,-2980,359,0,4640
64049000,2787,-5524,-46,16,881,-998,-8939,1381,-8219,-2654,480,0,4679
64101000,3096,-5159,208,207,836,-3623,-4605,893,-9289,-1558,359,0,4640
64149000,3312,-5024,-2,-18,1170,-4660,-8573,1259,-9745,-1197,240,39,4640
64201000,3289,-4991,-13,-53,361,-12900,-8634,527,-9868,-1054,240,0,4640
64249000,3047,-5002,-141,201,274,-15403,-6925,832,-9216,-1120,359,0,4640
64301000,2878,-5023,117,21,-238,-15708,-6497,1015,-8636,-1149,480,0,4640
64349000,2901,-4996,58,160,1986,-14731,-6070,1015,-8693,-1068,480,0,4640
64401000,2820,-5273,137,134,2201,-17295,-12113,588,-8582,-1540,359,-39,4760
64449000,2666,-5293,28,-97,2024,-18393,-4971,-693,-8066,-1618,359,0,4760
64501000,2737,-5720,127,209,339,-8994,-22366,-632,-8212,-2881,359,0,4760
64549000,3026,-6235,147,-63,1165,-5149,-17850,-1303,-8872,-4004,480,0,4839
64601000,3237,-6666,59,33,1055,-3257,-20413,-2097,-7913,-5480,359,599,4839
64649000,2995,-6951,-63,170,473,-10642,-14493,-754,-6358,-6641,359,920,4719
64701000,2765,-7156,104,89,535,-3684,-17850,-144,-3497,-7310,480,1600,4719
64749000,3137,-7334,-67,-113,1131,13954,-16873,2785,-2733,-7772,359,2119,4719
64801000,3823,-7391,-91,2,238,14198,-16629,2846,-4389,-9213,359,2360,4319
64849000,4177,-7454,-93,64,-84,11208,-19437,4982,-2633,-11774,359,3239,3520
64901000,4628,-7355,26,111,212,18471,-11929,5471,-325,-19187,359,4519,959
64949000,4941,-7051,155,55,281,11879,-1126,5959,378,-21454,240,5039,-39
65001000,5026,-6281,237,23,1964,8766,8272,5593,-559,-21845,359,4839,-1000
65049000,5004,-5342,-36,-87,2074,9010,9676,4799,-2091,-20493,359,4319,-1319
65101000,4865,-4358,-139,99,2138,3517,13277,4067,-7035,-22676,359,2520,-3200
65149000,4509,-3442,47,95,514,771,16207,4250,-6753,-23369,359,2320,-4200
65201000,4168,-2305,183,194,1481,-2585,24019,3212,-5545,-20476,480,2320,-4520
65249000,3794,-1573,36,327,2166,2114,12423,1931,-4498,-18452,359,2320,-4520
65301000,3723,-1468,59,101,2201,3151,12117,1564,-4209,-17964,359,2320,-4520
65349000,3647,-1130,-212,-21,1604,6935,18648,-266,-3842,-16989,480,2360,-4479
65401000,3544,-837,35,-7,853,7668,16634,-266,-3553,-15832,359,2360,-4440
65449000,3716,-733,-9,53,-213,13100,21334,-388,-2837,-15595,359,2720,-4440
65501000,3959,-441,-73,-82,1116,11574,27437,-571,-2757,-14045,480,3039,-4240
65549000,4015,-302,-98,38,695,3639,20662,-510,-2014,-13039,480,3359,-4040
65601000,3833,-300,241,199,2201,-1792,19442,-2036,1219,-12662,480,4240,-3919
65649000,3573,-315,186,79,1989,-2402,20357,-632,2040,-12576,480,4279,-3880
65701000,3477,-429,51,141,1116,2480,18587,-2524,2287,-12929,480,4240,-3880
65749000,3513,-348,230,157,317,7424,25179,-3867,2277,-12989,359,4240,-3960
65801000,3851,-460,90,115,1134,14015,19075,-4660,1284,-12421,359,4279,-3680
65849000,4365,-720,96,108,1072,21523,14742,-5271,-74,-12799,480,4240,-3600
65901000,5010,-1083,-38,2,-284,22072,13277,-7041,-2310,-12849,480,4240,-3200
65949000,5441,-1357,106,22,603,18166,9371,-8505,-3600,-13344,599,4200,-3159
66001000,5433,-2088,19,196,216,5470,-5094,-8627,-3579,-15144,480,4240,-2960
66049000,4963,-2676,-30,215,598,-7041,10591,-9116,-2488,-16216,480,4240,-2760
66101000,4275,-2350,72,17,931,-4966,19136,-10214,-106,-14732,480,4240,-2560
66149000,4016,-2581,57,2,890,2602,-5399,-14365,645,-14540,480,4240,-2359
66201000,3929,-3048,-11,62,763,2114,-943,-16379,930,-15746,480,4240,-2200
66249000,3955,-3226,117,16,1388,5837,-211,-17478,-80,-15834,480,3919,-2079
66301000,4169,-3789,44,131,1693,11757,-13089,-19187,-3987,-15449,480,2839,-1360
66349000,4406,-4313,13,34,2201,8766,-8084,-18698,-6648,-13967,480,2160,-399
66401000,4390,-4790,0,75,809,588,-20169,-16745,-8490,-14612,480,1559,-80
66449000,3856,-5279,105,-93,1563,-15647,-12784,-15585,-7428,-15850,480,1519,-39
66501000,3036,-5062,117,-54,1642,-9116,-4605,-16257,-4429,-15308,480,1559,-39
66549000,3037,-4940,120,2,1306,4799,-7901,-12717,-4070,-15126,359,1640,-80
66601000,3468,-4633,-74,138,918,3700,-4849,-9970,-5005,-14140,359,1800,-80
66649000,3430,-4392,56,-82,726,-7773,-6558,-6980,-4891,-13434,480,1840,-39
66701000,2918,-4099,17,-116,2052,-14243,-5948,-3073,-3355,-12419,-119,1800,-39
66749000,2376,-3794,173,77,54,-15464,154,-571,-1634,-11821,-2040,1919,-80
66801000,2193,-3193,131,72,1238,-9970,-89,3640,-820,-9819,-10320,1919,-80
66849000,2194,-2837,38,56,976,-10825,-4056,7851,-816,-8920,-12600,1919,-80
66901000,2216,-2421,-72,156,-494,-10825,3633,10292,-889,-7505,-12600,1919,-80
66949000,2275,-2041,62,283,60,-13083,-150,10537,-1035,-6337,-12359,1919,-39
67001000,2281,-1920,-119,16,-168,-13083,-1615,12062,-1084,-5881,-12359,1919,-39
67049000,2631,-1909,226,186,1262,-7468,-5277,11513,-1860,-5956,-9840,1919,-80
67101000,3067,-2018,137,59,716,-10825,-2713,8889,-3442,-6295,-599,1919,-80
67149000,3064,-2141,86,161,-119,-19858,-5277,4067,-3474,-6544,240,1919,-80
67201000,2910,-2335,47,215,1164,-20530,-8145,3823,-2970,-7245,359,1919,-80
67249000,2818,-2124,187,34,1107,-26999,2169,4128,-2365,-6767,359,2040,-39
67301000,2601,-1742,15,57,937,-26084,-1370,3456,1194,-5346,359,2999,-39
67349000,2421,-2076,-121,-60,1915,-19187,-13761,3273,1901,-6215,359,3080,-80
67401000,2487,-2389,182,65,879,-13449,-516,3151,4298,-7409,359,3919,-80
67449000,2735,-2343,59,24,1186,-4416,-3995,2297,4703,-7096,359,4240,-39
67501000,3404,-2652,79,166,1088,6020,-7474,2846,2747,-8077,359,4319,-39
67549000,3899,-2635,-193,55,1370,466,1558,1015,2010,-8246,480,4519,-80
67601000,4226,-2710,56,165,1368,5776,-10709,832,5080,-7650,480,5920,160
67649000,4484,-2927,273,-122,1537,3456,-8573,222,7234,-9201,359,6879,-160
67701000,4434,-3032,201,174,2175,7668,-4422,-449,10695,-11377,359,7999,-759
67749000,4638,-2920,161,193,574,12612,-516,344,11762,-11990,359,8520,-1039
67801000,4838,-2727,140,-51,875,11696,1436,1320,12965,-13581,359,9159,-1799
67849000,4755,-2451,-46,224,299,3273,8577,649,13346,-14595,359,9240,-2359
67901000,4513,-2025,-163,124,482,1564,5037,1381,15260,-17717,480,9600,-3880
67949000,4626,-1680,-200,-6,1212,13710,10958,-388,15237,-19113,480,9639,-4600
68001000,5102,-1003,12,272,1046,17006,17244,-266,13611,-18249,599,9639,-5080
68049000,5635,-736,34,129,1466,21767,6868,466,12312,-17391,480,9639,-5039
68101000,6190,-345,251,-3,555,19142,17977,893,12029,-17236,480,10200,-5399
68149000,6533,135,176,-24,2021,19264,10225,1442,11130,-16022,359,10200,-5440
68201000,6762,-13,203,210,395,15968,6014,2358,11512,-16599,359,10599,-5520
68249000,6839,56,123,130,902,18593,12850,1503,11205,-16703,480,10559,-5599
68301000,7001,-63,149,-22,1480,22560,3328,1442,10795,-16511,480,10599,-5440
68349000,7010,-158,-136,44,405,17616,13094,2297,10836,-17030,480,10639,-5479
68401000,6951,-5,32,-31,1919,21706,7112,2663,10945,-16336,480,10599,-5440
68449000,7029,-230,3,-29,581,22011,4732,2602,10643,-16638,480,10559,-5360
68501000,6967,-261,131,23,1522,16945,11995,2968,10776,-16864,480,10559,-5360
68549000,6810,-188,-71,38,1882,16213,5526,1015,11177,-16414,480,10559,-5279
68601000,6687,-140,21,72,1771,13588,10103,161,11617,-16141,599,10559,-5240
68649000,6641,57,62,135,914,19325,6868,1503,11779,-15444,480,10559,-5200
68701000,6506,-178,24,223,-231,13161,3328,1015,12160,-15296,359,10559,-4920
68749000,6286,-74,207,248,1466,10903,14376,893,12707,-14026,480,10559,-4559
68801000,6256,-61,129,97,2201,13893,2108,1442,12911,-12904,480,10559,-4240
68849000,6266,-218,-64,-58,2201,17128,4061,-22,12829,-12879,480,10520,-4080
68901000,6339,-74,-178,-152,1809,20241,4610,-815,12181,-12103,599,10400,-3960
68949000,6328,39,66,187,946,15480,4976,344,12297,-11308,480,10439,-3800
69001000,5943,41,321,-98,1622,9804,7784,344,13248,-9834,480,10360,-3320
69049000,5870,74,97,16,1704,17189,9798,710,13305,-9429,599,10280,-3200
69101000,5927,13,-143,-8,1112,14626,7418,1564,13176,-9558,480,10320,-3200
69149000,5902,45,127,121,1158,11513,9127,649,13128,-9363,480,10280,-3159
69201000,6038,1,58,-78,285,15968,7051,-388,12484,-9115,359,10200,-3040
69249000,6307,-75,-56,-5,2201,12612,5587,-1120,11525,-8968,480,10120,-2920
69301000,6115,-21,-138,67,2201,3761,4671,-1486,10212,-8224,480,9519,-2719
69349000,5793,-32,-20,150,951,1015,-455,-1303,9755,-7161,480,9080,-2359
69401000,5389,61,59,82,1556,6813,1375,-3562,8790,-4734,480,8320,-1640
69449000,5453,70,191,184,1563,8949,-2530,-2097,5839,-4040,480,7400,-1440
69501000,5329,-237,71,168,798,-4416,-2591,-1669,4531,-4072,480,6840,-1119
69549000,4831,-268,-185,168,1475,-9604,-2225,-3378,5311,-3451,599,6680,-880
69601000,4526,-484,-69,311,1261,99,-6864,-2219,4539,-2893,480,6040,-479
69649000,4309,-595,-252,303,1327,-8323,-3690,-2036,2888,-2718,599,5320,-319
69701000,4163,-600,-111,302,954,-1670,-7535,-2097,2390,-2280,599,4960,-160
69749000,4340,-659,2,212,-47,160,-6741,-815,1360,-2437,480,4760,-160
69801000,4291,-465,-300,202,297,-5149,-5216,-876,85,-1756,480,4319,-119
69849000,4159,-322,97,42,623,-11679,-3262,1320,-376,-1149,480,4080,-39
69901000,4207,-205,-14,443,229,-6064,-5582,1442,-3623,-737,480,2999,-39
69949000,4003,-156,197,105,1400,-20041,-4971,-2219,-3276,-686,480,2999,-80
70001000,3718,-1,72,179,1519,-18149,-5033,-1364,-3715,-243,480,2479,-80
70049000,3480,-14,259,193,1174,-15769,-7413,-815,-3568,-165,480,2320,-39
70101000,3217,49,-149,193,1322,-18454,-3201,-1669,-2692,27,480,2320,-39
70149000,2879,-63,-51,246,1741,-17173,-12662,-1853,-2540,-302,599,2079,-80
70201000,2752,-45,361,226,862,-19431,-3140,-1669,-2378,-255,599,1960,-39
70249000,2686,106,-473,-87,2,-12351,-5399,-1792,-3236,131,480,1600,-39
70301000,2989,-90,-52,-55,1152,-8323,-16507,-2158,-4768,-390,480,1400,-39
70349000,3027,269,182,-8,1479,-25718,5526,-815,-5619,477,480,1199,0
70401000,2792,781,-131,-135,1096,-19492,-5216,-937,-5016,2345,480,1119,0
70449000,2776,516,247,299,1238,-24741,-15470,161,-5204,1611,359,1080,-39
70501000,2204,899,-183,269,868,-25840,11019,-1914,-3374,2578,480,1080,-39
70549000,2440,1196,109,209,1234,-5332,-12784,-1303,-3701,3718,480,1119,0
70601000,2957,1187,-60,94,329,-20468,1863,-388,-5632,3562,480,1080,0
70649000,2644,1473,-204,-22,1724,-24436,-12540,-1303,-4825,4446,480,1080,-39
70701000,2934,698,-78,-139,2067,-6980,-16934,-632,-5682,1974,480,1040,-39
70749000,3543,790,-436,215,274,-3989,-4178,-388,-6904,2085,480,1119,-39
70801000,4024,480,97,-39,1301,-7529,-24564,-327,-8712,1322,480,1119,-39
70849000,4112,-105,3,135,1727,-14182,-14859,-937,-8970,-212,480,1119,0
70901000,4317,-188,-304,230,1691,-6430,-13028,-22,-9592,-565,480,1119,0
70949000,4062,-338,34,143,1882,-23215,-13699,-754,-9133,-1040,359,1119,-39
71001000,3386,-319,-121,13,908,-24741,-10648,-327,-6679,-1077,480,1159,-39
71049000,3351,-271,-246,104,566,-8261,-11502,771,-5830,-968,480,1359,-39
71101000,3469,-404,230,135,2129,-18149,-19315,283,-5487,-1214,480,1640,0
71149000,3208,-481,-287,82,1375,-9421,-6925,-266,-4099,-1713,480,1840,-39
71201000,3775,-246,-176,-80,1436,8156,-18094,-693,-4725,-739,480,2200,0
71249000,4162,-493,-204,36,2201,-4294,-21878,-2646,-5711,-129,480,2239,399
71301000,3722,-505,-160,100,717,-15464,-9305,-5942,-4447,1603,480,2239,1040
71349000,3568,1,-364,-64,1270,-2768,-3934,-7712,-3947,3038,480,2239,1119
71401000,3986,365,-217,-109,814,4738,-17850,-6369,-4999,4695,480,2320,1199
71449000,4515,452,17,4,-1,6752,-18582,-6857,-3333,4530,480,3320,1080
71501000,4802,910,76,75,806,-3501,-5948,-3317,3951,2611,359,6120,-39
71549000,4646,1556,-261,5,427,-4905,-8817,-3867,4458,4287,480,6159,-39
71601000,4965,2002,99,108,847,10231,-13577,-2646,4903,5887,599,6600,-39
71649000,5440,2276,-214,-100,1547,13161,-11075,-3073,3423,6574,480,6519,-39
71701000,5550,2185,-301,172,614,2541,-17850,-2219,3028,6316,240,6559,-80
71749000,5444,2048,-217,66,-463,4006,-14798,-1181,3212,5982,-4079,6519,-80
71801000,5770,1910,-110,160,2035,17922,-19193,3579,2248,5491,-16560,6519,-80
71849000,6415,1754,-181,64,353,26406,-16812,10781,795,5232,-21720,6559,0
71901000,7214,2073,152,117,2201,21218,-12662,16701,-2804,6220,-24119,6280,0
71949000,7131,1916,-133,24,2105,7485,-16873,17800,-3199,5703,-24119,6120,-39
72001000,6276,1532,-224,-7,1454,-8811,-18216,17739,-710,4476,-19079,6040,-39
72049000,5487,1387,21,-1,767,-8445,-5704,15602,-1162,3959,-5520,5200,-39
72101000,5624,1808,-67,-44,649,11147,1131,3456,-3072,5305,359,4600,-39
72149000,5874,1935,-56,-6,1398,9316,-16263,2358,-4790,5932,480,4240,0
72201000,5965,1311,-73,124,1253,7668,-20780,2541,-5295,3813,599,4200,-39
72249000,5702,1359,-105,-54,1024,-3196,704,1320,-4658,3818,480,4240,-39
72301000,5040,1338,19,127,1578,-5820,-13577,-1364,-2401,3894,359,4240,-39
72349000,4873,707,26,67,934,6996,-13822,-3195,-1842,2422,119,4240,0
72401000,5483,529,19,105,1182,21706,-5033,-2402,-3730,1587,240,4240,0
72449000,5994,305,152,169,1239,17739,-14066,-1914,-7645,1071,480,3399,-39
72501000,5806,-38,-38,44,1061,1015,-455,771,-11420,-234,3240,2000,-39
72549000,5134,61,-164,-10,765,-7163,1925,-449,-10919,0,4680,1600,-39
72601000,4575,177,46,18,2003,-4538,1619,-3317,-10245,3052,3480,1159,840
72649000,3999,-20,103,67,1383,-7468,-4422,-3989,-8736,4879,2760,1199,1600
72701000,3394,-351,-91,129,980,-4966,-5460,-4172,-6343,6986,2760,1280,2679
72749000,3322,-498,192,-34,2031,832,-5887,-6003,-4974,10502,2760,1640,4000
72801000,3498,-572,39,-15,760,6020,-3934,-5881,-1974,12201,2760,2839,4640
72849000,3771,-668,-35,85,291,9133,-5887,-6064,-940,12216,2879,3399,4719
72901000,4003,-1009,66,177,408,710,-14981,-6613,828,10891,3119,4279,4640
72949000,3957,-1442,45,66,1087,-3379,-16934,-5515,2725,9890,2640,4879,4679
73001000,3869,-1646,-25,75,472,-5271,-10709,-5515,6392,4779,2039,5999,3239
73049000,3926,-1480,39,166,90,1137,-28,-5148,9401,3225,1679,7040,2600
73101000,4358,-1205,64,20,1398,12978,6319,-2585,10444,-257,599,7839,1119
73149000,4856,-921,-30,76,875,16457,8211,-1975,10644,-498,599,8320,799
73201000,5314,-741,-77,-1,13,14137,6746,-876,9015,-183,599,8320,680
73249000,5501,-691,105,69,1713,8949,6258,-510,8479,-60,480,8320,680
73301000,5489,-545,153,-56,880,2236,10225,-1120,9210,-557,480,8559,360
73349000,5330,-395,-32,134,-115,4982,14254,-1486,9626,-690,480,8559,199
73401000,5288,-189,-74,31,1382,8827,16634,-1425,9813,-327,480,8559,79
73449000,5391,-29,-43,-23,943,8888,14803,-449,9625,-148,480,8559,0
73501000,5583,52,-96,-84,-9,12123,14071,-2097,9050,157,359,8599,0
73549000,5850,173,1,-79,179,12673,15596,-1608,8278,422,480,8559,0
73601000,6098,227,208,35,2201,15175,16512,-1608,6785,683,480,8360,0
73649000,5862,-16,69,115,985,10719,13887,-2280,5556,177,480,7760,39
73701000,5611,-96,-187,-8,-332,9743,18343,-2524,5604,-290,599,7479,0
73749000,5738,241,-19,322,-297,11940,19258,-3562,5377,474,480,7479,0
73801000,6627,877,0,-39,-61,18044,17061,-3806,2196,2631,359,7360,0
73849000,7762,1396,90,-64,1042,23720,14864,-2341,-1216,4192,480,7240,39
73901000,8510,1158,76,32,969,30373,8333,-1731,-4052,3595,480,7160,39
73949000,8886,833,255,102,1327,18715,13460,2419,-5313,2629,480,7079,0
74001000,8440,534,242,220,1045,-2646,18831,5715,-4800,1602,480,6840,0
74049000,7382,488,293,-143,2084,-12168,25484,6569,-2464,1945,359,6760,160
74101000,6421,540,112,-45,-4,405,27437,8156,-4025,3062,480,5079,480
74149000,6226,719,-217,-12,542,10231,36409,11086,-4494,3810,480,4719,599
74201000,6250,1289,111,76,995,4982,39034,12673,-6030,5788,480,4240,639
74249000,5622,1569,15,81,1487,-12534,30977,14077,-7016,6634,480,3399,639
74301000,4755,1347,8,38,741,-9360,21395,13039,-4187,5841,480,3359,599
74349000,4390,1035,139,181,770,3700,19381,13100,-3907,5175,480,3120,639
74401000,4457,862,-67,79,456,6996,25911,12856,-4371,4507,480,2999,639
74449000,4587,1086,93,131,210,8644,34945,16030,-5038,5055,480,2880,639
74501000,4818,1266,-104,11,658,7301,28109,16396,-9536,6319,359,1640,840
74549000,4601,965,371,216,1161,-14853,15352,14870,-10824,6153,480,1080,999
74601000,3981,197,161,159,1333,-18515,9005,13588,-10863,4192,359,360,1199
74649000,3941,-310,110,285,742,-3867,15291,12307,-11666,2689,359,0,1159
74701000,3709,-451,-23,231,1362,-30356,13460,12795,-11249,-874,480,-39,160
74749000,2698,-814,-179,249,394,-40305,11812,12185,-8591,-2482,480,0,-80
74801000,1573,-1066,152,-148,1065,-44455,9066,12001,-4721,-3320,480,0,-39
74849000,401,-1701,-35,127,-308,-56845,5220,9682,-1874,-4826,480,0,0
74901000,-1495,-1738,244,-12,1069,-67343,10653,6569,4367,-5215,480,-39,0
74949000,-1918,-2197,-177,164,1927,-24741,6319,3579,5952,-6506,480,0,-39
75001000,-1534,-2665,260,103,2115,-31455,-9671,2053,4722,-7995,359,39,0
75049000,-1853,-3311,-90,30,953,-34873,-2652,-1242,5413,-6519,480,0,1080
75101000,-1930,-3476,-277,24,-53,-24497,6624,-1303,5791,-4669,480,0,1919
75149000,-1225,-2497,-70,239,1142,-510,29024,-3195,4219,-164,480,0,2639
75201000,298,-1938,121,231,1441,12489,8638,-4355,-776,4143,480,39,3320
75249000,1758,-1505,-88,43,203,22194,23531,-876,-4341,5585,480,79,3480
75301000,2310,-1544,-235,48,209,-205,-23648,-1120,-3570,5806,480,1119,3480
75349000,2881,-3300,121,-261,849,18715,-46109,2419,-4080,1673,480,1400,3559
75401000,3327,-3936,292,191,1149,-3989,-3262,3456,-2901,-769,480,2360,3680
75449000,2428,-3183,-198,242,1493,-24192,-8389,1809,-206,2451,480,2520,4080
75501000,2115,-3738,85,79,599,-2158,-31400,-327,2412,2345,480,2920,4519
75549000,2473,-3346,92,-65,919,-571,13033,-2097,1815,4243,480,3039,4960
75601000,2620,-2697,40,-45,939,-4966,-15408,1870,1377,9426,480,3080,5840
75649000,2603,-3227,182,-2,1824,-11130,-19559,3029,2193,9521,480,3359,6319
75701000,2680,-3161,-94,261,1654,1747,-2896,1442,2638,11396,480,3559,6960
75749000,3271,-3161,-141,270,583,5959,-19803,832,1978,13289,480,3840,7520
75801000,3320,-3765,37,192,1508,-12717,-16507,1259,2757,11024,480,4240,7439
75849000,3065,-3802,5,44,1784,-4355,-7901,-144,3669,11585,480,4279,7679
75901000,3486,-4197,192,127,2201,7973,-26883,405,2619,12608,599,4360,8400
75949000,3915,-4926,35,64,1389,2480,-20596,954,1717,11358,480,4440,8640
76001000,3968,-4996,-53,-45,863,2358,-9366,588,1654,11169,480,4519,8719
76049000,4075,-5126,-32,-24,901,6386,-19803,-1547,1417,11034,480,4519,8759
76101000,4191,-5334,30,111,1748,6630,-11929,-1914,986,10397,480,4519,8800
76149000,4188,-5007,27,-129,1610,9682,-6375,-2463,1380,11062,599,4640,8759
76201000,4331,-4895,56,-121,827,12612,-14981,-2890,1885,11953,599,4960,8880
76249000,4546,-4911,12,163,78,15480,-7718,-3501,2217,12426,480,5239,9080
76301000,4917,-4653,139,-23,514,16396,-13211,-5210,3127,13399,480,5959,9119
76349000,5212,-4888,-24,53,1245,14076,-23465,-6796,2356,12857,599,5959,9119
76401000,5387,-5183,135,-88,605,14076,-22122,-6918,2196,12170,599,6120,9240
76449000,5647,-5365,5,54,1086,20546,-18643,-4538,1699,11950,599,6159,9320
76501000,6297,-5481,92,-68,865,29152,-21024,-4172,-533,11635,599,6120,9360
76549000,6847,-5613,155,274,1650,22743,-20596,-2829,-1880,11556,599,6159,9440
76601000,6678,-5719,-81,205,885,3884,-17972,-1486,-1675,11281,599,6120,9480
76649000,5946,-5654,78,24,2201,-11313,-18887,-1181,72,11698,599,6120,9560
76701000,4988,-5587,268,-206,1597,-6614,-20535,-571,3395,12038,599,6120,9600
76749000,4734,-5672,-76,179,1837,7912,-20780,-83,4197,11810,480,6120,9600
76801000,4885,-5740,26,-24,1531,11452,-23404,2724,3584,11577,480,6080,9600
76849000,5052,-5934,21,282,1160,10109,-23770,1870,3244,11100,599,6120,9600
76901000,4899,-6226,22,101,471,-632,-22977,3334,3422,10241,599,6040,9639
76949000,4597,-6395,156,17,271,2175,-20474,5349,4420,10204,359,6120,9760
77001000,4436,-6609,-83,-16,856,8034,-21451,4738,5049,10050,480,6120,9960
77049000,4727,-6815,187,174,1649,15358,-18338,5837,4393,9735,480,6120,10039
77101000,5090,-6970,287,88,1047,16152,-17301,5654,2967,9208,599,6080,10039
77149000,5125,-6659,234,-129,1789,10536,-7291,4738,2760,9844,480,6080,10000
77201000,5113,-6298,-169,-41,-192,19753,-10526,4067,3858,10865,480,6400,9920
77249000,5521,-5991,94,25,-259,24452,-7230,3090,2739,11738,480,6359,9960
77301000,5979,-5541,72,59,973,23171,-2408,3945,1022,12896,480,6319,9840
77349000,6344,-5179,207,-33,565,26100,-5948,3334,-12,13516,480,6280,9719
77401000,6826,-4907,146,149,81,25490,-1309,4250,-2600,13717,480,5959,9480
77449000,7166,-4570,191,77,1288,20180,5526,4494,-7865,14664,480,4519,9519
77501000,6946,-4233,295,85,1751,3639,2718,5593,-8600,15979,480,4080,9560
77549000,6102,-4117,88,69,1793,-3073,4915,4555,-9211,16270,480,3159,9560
77601000,4909,-3841,123,-37,1367,-19797,11385,2602,-7767,17155,480,2320,9560
77649000,3508,-3639,159,53,134,-31882,10164,649,-6436,17443,359,1600,9480
77701000,2255,-3443,231,135,-81,-24009,18404,-815,-6646,15950,480,39,8759
77749000,2154,-3013,309,139,75,-2768,25057,-327,-6336,16934,2279,0,8719
77801000,2605,-2874,-8,269,329,-5454,21456,-2768,-7815,17295,2400,0,8640
77849000,2523,-2900,46,184,332,-17417,14254,-5637,-7733,17029,2519,0,8559
77901000,2181,-3007,118,-45,1615,-24375,17488,-6186,-6543,16656,2400,0,8559
77949000,1663,-2860,71,55,830,-22483,19075,-5576,-5207,17001,2279,0,8559
78001000,1557,-3088,-130,-54,1637,-18576,8333,-5881,-4672,16413,2279,0,8559
78049000,1544,-3274,260,-30,1029,-16623,15352,-5271,-4557,16096,2279,0,8640
78101000,1694,-3278,243,126,859,-13694,17427,-5148,-5202,15963,2160,-39,8599
78149000,1988,-3475,-27,21,1304,-9116,12667,-6674,-5691,15392,2279,0,8559
78201000,2280,-3831,259,244,774,-8200,14376,-7102,-6841,14184,2039,0,8559
78249000,2532,-4023,63,67,14,-9665,15535,-7041,-7463,13826,2039,0,8599
78301000,2621,-4146,192,105,821,-13510,14986,-7163,-7983,13361,2039,-39,8599
78349000,2547,-4227,257,131,273,-15708,13704,-7712,-7718,13028,2160,0,8559
78401000,2848,-4200,373,133,99,-3867,14620,-5759,-8544,13079,2039,0,8559
78449000,3185,-4099,187,-69,421,-5881,18953,-5332,-9473,13261,1799,0,8559
78501000,3285,-3899,153,-67,1098,-6675,21212,-7224,-9857,13982,1679,0,8559
78549000,3514,-3670,139,46,1965,4128,19808,-5881,-10298,14727,1320,0,8599
78601000,3850,-3768,201,105,737,4433,18465,-6369,-11672,13654,1199,-39,8320
78649000,4073,-3648,103,41,533,-2036,26216,-4111,-12177,13068,959,0,8039
78701000,3985,-3766,-46,-85,158,4860,5526,-2280,-11955,12820,599,0,8039
78749000,4314,-3828,-37,96,2201,14931,24508,-4050,-12679,12554,599,0,8080
78801000,4598,-3246,257,180,2201,221,20723,-2341,-13795,14499,599,0,8080
78849000,3850,-3173,150,69,2030,-20224,21029,-6186,-11885,14549,599,39,8039
78901000,2508,-2980,-10,43,174,-35239,15291,-5637,-7284,15178,599,79,8039
78949000,1226,-3453,302,261,1544,-33591,3389,-5942,-4024,14040,599,39,8039
79001000,900,-3420,-38,84,1224,-10031,20540,-5148,-2582,13977,599,39,8080
79049000,1613,-3313,49,146,968,16213,8638,-7285,-4182,14371,599,39,8080
79101000,2758,-3620,177,-73,557,2907,4976,-9055,-8275,13379,599,0,8080
79149000,2458,-4169,193,286,2059,-26511,1070,-9421,-7610,12022,599,39,8080
79201000,1300,-4838,18,166,1944,-37925,32,-8872,-3901,9724,599,0,8080
79249000,461,-5000,127,130,1803,-26938,6990,-8933,-1501,9417,599,39,8160
79301000,221,-4550,4,45,1173,-13327,17183,39,-545,11187,599,39,8280
79349000,757,-4439,239,153,1373,5654,6502,-1853,-1545,11386,599,79,8239
79401000,2139,-4076,122,-36,1166,24758,20418,-815,-4139,12489,599,759,8239
79449000,3173,-3830,218,398,170,15053,9005,710,-5317,13331,599,1280,8280
79501000,3670,-3719,50,-140,1400,1991,14376,1564,-1532,14040,599,3159,8400
79549000,3490,-3771,14,98,883,-10520,4122,2236,2164,14233,599,4279,8480
79601000,2534,-3931,142,-16,2201,-21506,7296,-1853,8476,14486,480,5360,8759
79649000,2317,-4092,131,65,818,-1303,-2042,3456,11139,14714,480,5999,8920
79701000,2827,-4584,90,-38,2131,6691,-2896,3701,9996,13486,480,6159,9080
79749000,3190,-4975,281,88,2201,-571,-3568,5410,8686,13675,480,6080,9480
79801000,3259,-5289,300,25,2070,343,1986,6630,9420,13172,599,6400,9679
79849000,4155,-5253,384,9,1427,44472,-211,6935,8432,13389,599,6719,9719
79901000,5708,-5669,5,131,1454,42397,-23953,6874,3515,12150,599,6879,9719
79949000,6088,-6279,182,-72,265,12062,-20658,5043,2941,10626,480,7079,9760
80001000,5651,-6667,-64,202,714,-1792,-22489,7607,5125,9277,480,7360,9760
80049000,5266,-7127,109,-208,558,9865,-21024,6997,7189,8118,599,7679,9760
80101000,5389,-7750,123,-34,747,12306,-23099,4372,7112,6749,480,7760,10000
80149000,4638,-7501,225,19,2140,-22666,887,4128,8524,7964,480,7720,10240
80201000,3395,-7209,151,97,1583,-10276,-10343,2968,13332,10290,480,7839,10639
80249000,3870,-7461,297,293,2073,32265,-18643,-815,12511,10482,480,7839,10920
80301000,4970,-7704,200,87,1253,21523,-18216,-449,8609,10127,599,7839,11080
80349000,5132,-7874,-51,-89,1034,3273,-24564,-205,8176,10081,480,7880,11199
80401000,4884,-8154,-40,-165,1295,6447,-27799,-1792,9345,9737,480,7999,11400
80449000,4957,-8000,-89,53,1965,12123,-11136,-2707,10069,10602,359,8280,11640
80501000,5019,-7560,-158,-57,1066,11696,-25296,-4355,10621,13198,359,8559,11960
80549000,5079,-7819,89,-90,779,9377,-27432,-6186,11412,12784,480,8880,12040
80601000,5252,-7618,-47,136,1480,13832,-16324,-5026,11361,13264,480,9040,12040
80649000,5506,-7541,49,48,934,10048,-29569,-6491,10793,13700,359,9080,12080
80701000,5610,-7559,114,39,1848,8156,-20352,-5332,10887,13562,359,9240,12080
80749000,5464,-7363,-44,65,-37,9926,-26273,-4294,11358,14168,480,9280,12080
80801000,5596,-7703,-34,-146,1239,16274,-34146,-4172,10930,13130,480,9240,12080
80849000,5610,-7712,-114,147,1889,8644,-19071,-3623,10859,12857,480,9240,12040
80901000,5566,-7685,-75,93,921,14870,-33170,-2890,11020,12823,480,9240,11960
80949000,5678,-7988,-4,-116,213,7973,-28653,-3378,10767,11761,359,9280,11879
81001000,5523,-7990,32,-22,378,4311,-24137,-2768,11148,11428,480,9240,11800
81049000,5510,-8355,91,-92,1439,11452,-36344,-2951,11261,9885,480,9240,11559
81101000,5546,-8652,234,9,1335,9377,-22061,-3195,10840,8002,480,9159,11320
81149000,5574,-8536,-20,71,2062,11452,-24686,-1669,10563,7947,359,9080,11199
81201000,5629,-8638,104,13,147,11696,-24503,-2524,10350,5885,359,9080,10599
81249000,5782,-8282,36,-28,581,11818,-11624,-2402,9127,2126,240,8800,9080
81301000,5875,-7764,123,-24,1959,5776,-13944,-3195,5532,-1814,359,7720,7160
81349000,5843,-7226,154,64,1518,3700,-4605,-3623,5477,-4003,359,7679,5999
81401000,5609,-6635,66,13,1095,-83,-516,-3439,5132,-7305,359,7320,4200
81449000,5353,-6284,-30,190,651,-2158,1436,-4965,4529,-15070,359,6879,1319
81501000,5185,-5602,90,85,1077,-2158,19442,-5271,402,-16806,359,5320,0
81549000,5038,-4629,-52,214,827,-5881,22982,-3439,734,-14461,359,5320,-39
81601000,4831,-4041,-40,134,-944,-6430,14193,-3256,1464,-12244,359,5320,-39
81649000,4593,-3913,-74,-16,594,-14670,16878,-3745,2006,-11853,359,5320,0
81701000,4325,-3568,251,-52,1228,-10520,18648,-3439,2982,-10705,359,5320,0
81749000,4325,-3479,243,237,1681,893,12606,-1853,3230,-10419,359,5360,0
81801000,4672,-3602,189,58,621,-449,11873,-1975,1942,-10808,359,5320,0
81849000,4859,-3554,164,181,245,-2280,20052,-3073,482,-10647,480,4960,0
81901000,4925,-3491,140,42,760,-144,18953,-4233,-2055,-10475,480,4240,0
81949000,5039,-3514,-37,195,386,1015,17000,-4111,-2207,-10611,359,4279,-39
82001000,5219,-3552,128,301,1437,-5088,19442,-5393,-2938,-10778,359,4240,-39
