time_ms,imu_roll,imu_pitch,ax,ay,az,gx,gy,gz,Setpoint_rollRate,"set_pitchRate,",Setpoint_yawRate,Setpoint_roll,Setpoint_pitch
3801000,3934,-2986,59,44,1050,-449,399,832,-11802,-8959,480,0,0
3849000,3922,-2995,53,36,945,-449,93,1198,-11895,-8971,599,-39,0
3901000,3903,-3003,66,48,942,-388,-211,1198,-11831,-9011,599,-39,0
3949000,3907,-3002,77,85,958,282,-516,649,-11827,-8872,599,-39,39
4001000,3903,-2998,80,74,999,38,-394,1076,-11830,-8874,599,-39,39
4049000,3915,-3001,84,97,931,343,-638,344,-11723,-8872,480,0,39
4101000,3929,-2997,66,106,964,343,-943,-510,-11787,-8991,480,0,0
4149000,3938,-2999,71,107,958,38,-760,-937,-11924,-8984,599,-39,0
4201000,3946,-2985,57,78,922,771,-699,-266,-11959,-8836,599,-39,39
4249000,3946,-2966,68,76,943,588,-699,-510,-11953,-8780,599,-39,39
4301000,3944,-2975,13,65,971,282,-333,-22,-11952,-8807,599,-39,39
4349000,3951,-2963,36,53,959,160,-28,283,-11845,-8901,480,0,0
4401000,3950,-2956,54,63,1079,-266,-577,-754,-11852,-8870,480,0,0
4449000,3942,-2957,71,57,1098,-449,-150,-449,-11953,-8881,599,-39,0
4501000,3931,-2968,37,73,1171,-266,-150,-388,-11913,-8904,599,-39,0
4549000,3918,-2994,39,101,1074,-266,-89,-693,-11888,-8860,599,-39,39
4601000,3900,-2992,17,68,961,-388,154,-83,-11822,-8978,599,-39,0
4649000,3893,-2992,25,91,937,-388,93,-327,-11689,-8984,480,0,0
4701000,3893,-2995,18,63,1046,99,582,-571,-11681,-8987,480,0,0
4749000,3890,-2988,55,68,1113,771,704,-3073,-11776,-8974,599,-39,0
4801000,3876,-2991,14,78,1177,1991,93,1870,-11750,-8975,720,-39,0
4849000,3877,-2978,11,60,956,588,704,-6613,-11765,-8834,599,-39,39
4901000,3843,-2965,15,-18,683,-4355,-89,4067,-11651,-8776,720,-39,39
4949000,3845,-2950,91,121,1026,-632,-577,-4721,-11564,-8856,599,0,0
5001000,3881,-2890,78,71,1025,954,277,3212,-11645,-8670,599,0,0
5049000,3912,-2849,60,47,1184,-1487,-28,-3378,-11832,-8536,720,-39,0
5101000,3922,-2814,5,170,707,282,2169,4006,-11886,-8322,720,-39,39
5149000,3898,-2806,223,-38,791,-2341,-2530,-4782,-11881,-8229,720,-39,39
5201000,3949,-2855,43,105,1248,-937,1131,-2646,-11968,-8447,720,-39,39
5249000,3956,-2834,-126,-63,929,1259,704,1564,-11847,-8489,599,0,0
5301000,3962,-2889,-35,301,548,-3012,-272,10659,-11886,-8668,599,0,0
5349000,3954,-2889,-355,-20,809,-3379,1741,-5332,-12084,-8727,720,-39,0
5401000,3969,-2922,-117,-14,909,466,1802,2541,-12028,-8766,720,-39,0
5449000,3979,-2902,280,-123,776,-388,-1004,6997,-12046,-8554,720,-39,39
5501000,4008,-2921,212,-39,995,954,643,4860,-12144,-8764,720,-39,0
5549000,3998,-2895,24,240,1735,-571,521,-9055,-11970,-8609,599,0,39
5601000,3974,-2848,107,-160,218,-1975,704,1747,-11922,-8545,599,0,0
5649000,3936,-2858,8,-150,476,282,-3262,5837,-11936,-8410,720,-39,39
5701000,3895,-2783,3,-16,672,-1120,1375,1625,-11807,-8350,720,-39,0
5749000,3868,-2653,32,-96,1352,-2036,-89,3762,-11815,-7984,720,-39,0
5801000,3890,-2677,93,197,1013,-2646,399,-2097,-11791,-7912,720,-39,39
5849000,3925,-2544,130,1,1233,1747,2413,-2402,-11730,-7702,599,0,0
5901000,3973,-2600,61,-126,688,893,-2408,1809,-11921,-7800,480,0,0
5949000,3963,-2547,28,56,1310,-2280,-333,2236,-12065,-7638,599,-39,0
6001000,3961,-2597,150,-18,1314,1747,277,-83,-12004,-7793,599,-39,0
6049000,3932,-2569,51,48,1169,649,216,2968,-11957,-7704,599,-39,0
6101000,3939,-2556,-134,141,564,710,-1798,-1792,-11938,-7550,599,-39,39
6149000,3937,-2590,75,-62,1030,-2097,-1065,1686,-11888,-7746,480,0,0
6201000,3827,-2628,257,12,1161,2114,2901,-1914,-11482,-7884,480,0,0
6249000,3702,-2744,-60,34,692,954,-394,1381,-11280,-8164,599,-39,0
6301000,3682,-2801,9,131,844,1442,3206,-1059,-11167,-8403,599,-39,0
6349000,3634,-2759,-51,28,963,-1853,-2103,1259,-11108,-8112,599,-39,39
6401000,3637,-2857,29,-22,889,-2402,3267,1137,-11032,-8571,599,-39,0
6449000,3591,-2622,68,152,1018,3334,765,161,-10765,-7899,480,0,0
6501000,3708,-2833,52,102,1238,-2219,-4300,-1303,-11125,-8380,480,0,39
6549000,3783,-2634,28,-21,778,-1914,5159,1503,-11498,-7888,599,-39,39
6601000,3748,-2834,181,33,1582,282,-6375,-1181,-11364,-8382,599,-39,39
6649000,3708,-2798,13,200,471,-266,6258,1320,-11264,-8095,599,-39,160
6701000,3625,-2636,-131,-41,931,-2951,-7657,2175,-10996,-5510,599,-39,799
6749000,3587,-3007,46,177,826,3700,277,-2890,-10795,-6200,480,0,920
6801000,3562,-2548,3,122,730,-510,7418,3090,-10688,-4765,480,0,959
6849000,3573,-2892,234,158,1308,588,-12540,-2341,-10807,-5168,599,-39,1080
6901000,3617,-2637,31,-191,1794,-2036,15596,2968,-10972,-4073,599,-39,1280
6949000,3568,-2647,-20,-49,1429,466,-15347,2663,-10811,-3063,599,-39,1519
7001000,3670,-2828,183,91,1800,2358,11324,-2341,-11132,-3324,599,-39,1719
7049000,3482,-2301,-1,-6,2201,-3928,154,2297,-10602,-1510,480,0,1760
7101000,3316,-3319,-45,0,404,3029,-11380,283,-9949,-4078,480,0,1960
7149000,3258,-2505,78,158,2008,1015,23775,-1364,-9930,-1768,599,-39,2119
7201000,2971,-2767,188,46,2088,38,-31583,6813,-9034,456,599,-39,2920
7249000,2858,-3500,-1,67,815,1808,16024,527,-8762,-1296,599,-39,3199
7301000,2631,-2301,207,103,2201,-3623,-4788,4433,-8013,5575,599,-39,4159
7349000,2595,-3982,-99,4,165,12062,-24075,-1303,-7548,1421,480,0,4200
7401000,2515,-3214,-373,106,1595,-13449,43367,1381,-7546,2957,480,0,4200
7449000,2520,-2864,182,39,1510,3822,-17789,6691,-7566,4390,599,-39,4159
7501000,2304,-4217,179,35,2150,-16074,-16690,1564,-7032,-173,599,-39,4159
7549000,2324,-3604,183,104,586,3700,33297,-13144,-6800,930,599,-39,4159
7601000,2332,-3545,13,42,1308,-11069,-28592,-3989,-7116,1963,599,-39,4200
7649000,2306,-4533,147,105,-487,3212,-1187,5043,-6721,-1148,480,0,4159
7701000,2681,-2794,68,220,1525,8278,25362,8889,-8045,4455,480,0,4279
7749000,2785,-2996,14,-219,1954,-10031,-21146,1747,-8582,4727,599,-39,4440
7801000,2241,-3648,-68,32,1843,3822,-9366,9255,-6844,2615,599,-39,4519
7849000,2547,-2941,130,-13,1226,-815,22493,9560,-7776,4197,599,-39,4519
7901000,2498,-2496,-105,11,1091,-4599,1192,5288,-7614,5951,599,-39,4479
7949000,2337,-2617,173,57,899,6874,-14127,5593,-6911,5682,480,0,4440
8001000,2502,-2826,260,71,352,2114,-943,4006,-7507,4961,480,0,4479
8049000,2547,-2182,-85,-15,887,2175,10347,4860,-7658,6312,599,-39,4400
8101000,2569,-2308,245,-7,2201,3700,-17850,1625,-7827,6033,599,-39,4319
8149000,2529,-2441,49,6,1195,-2524,17550,2358,-7774,5315,599,-39,4319
8201000,2340,-2006,170,32,1012,-3928,-1370,1564,-7140,6939,599,-39,4319
8249000,2354,-2796,-3,15,826,3578,-20413,2541,-6956,4969,480,0,4319
8301000,2455,-2454,128,-65,277,-2158,21212,4311,-7367,5357,480,0,4240
8349000,2451,-2076,-18,213,-76,3273,-2652,161,-7436,6674,599,-39,4240
8401000,2547,-3252,16,-29,1631,-4905,-15347,588,-7761,3082,599,-39,4279
8449000,2606,-3247,-42,-143,2169,-3073,21944,8461,-8004,2937,599,-39,4360
8501000,2471,-2821,-5,-65,397,-510,1314,2480,-7535,5336,599,-39,4600
8549000,2442,-3229,28,77,1515,-3928,-7535,771,-7390,5004,480,0,4800
8601000,2551,-3233,104,2,1029,832,8516,5532,-7653,5419,480,0,5039
8649000,2476,-2759,-167,4,756,-2158,7967,7668,-7539,6777,599,-39,5079
8701000,2455,-2816,-190,-24,1678,2175,-7413,7119,-7485,6790,599,-39,5079
8749000,2302,-2951,60,165,793,-1181,-638,9987,-7146,6355,599,-39,5079
8801000,1993,-2418,98,79,860,-6980,12667,10170,-6099,9425,599,-39,5560
8849000,1677,-2156,-98,-71,2201,-2646,-1431,9011,-5155,12327,480,0,6240
8901000,1399,-2644,-13,104,1218,-5454,-11807,9926,-4197,11625,480,0,6519
8949000,1163,-2620,117,114,1273,-5027,-760,11452,-3747,12060,599,-39,6680
9001000,878,-2473,186,71,1426,-9421,-2896,8400,-2756,12860,599,-39,6760
9049000,531,-2492,-37,18,901,-11802,-8389,7973,-1925,13054,599,-39,6840
9101000,-111,-2329,-5,46,448,-17356,-2469,7424,213,14132,599,-39,7040
9149000,-437,-2316,-225,-63,541,-9177,-6009,3701,1256,14323,480,0,7079
9201000,-335,-2574,-91,32,-62,-5881,-18765,3334,1006,13396,480,0,7040
9249000,-412,-2793,-30,-109,941,-8139,-8084,6142,1146,12200,599,0,6879
9301000,-385,-2261,62,59,1200,-4843,6380,7180,6556,8934,599,1800,5239
9349000,-350,-2317,183,128,359,-7346,-17728,2236,8146,7551,599,2360,4760
9401000,-156,-3123,166,-98,2201,-5759,-13150,2541,13070,3829,240,4200,4400
9449000,114,-3118,-27,67,351,405,7112,2541,12705,3780,359,4279,4440
9501000,744,-2741,-43,118,905,10109,9798,6874,9646,5096,480,3959,4440
9549000,907,-2434,29,0,1666,5348,-2286,5654,9215,6222,599,3959,4519
9601000,1027,-2823,18,240,233,7607,-9915,2297,9637,4849,480,4240,4440
9649000,903,-2961,254,-58,2201,-2585,3572,2663,11078,4197,359,4640,4360
9701000,860,-2995,-124,-68,819,5715,1436,-22,11459,3853,-119,4679,4279
9749000,1101,-3238,-76,2,-182,9499,-4727,2297,10760,3263,359,4640,4279
9801000,1440,-3491,-280,-143,2201,13283,154,3640,9719,2245,240,4679,4240
9849000,1723,-3960,153,21,1116,9621,-12418,2480,8816,1263,480,4640,4279
9901000,1799,-4208,162,112,417,2297,4854,4006,8521,333,119,4640,4319
9949000,1704,-3746,70,-14,2201,1625,2962,6691,9019,1424,480,4719,4279
10001000,1726,-3543,80,-43,1371,5531,-3079,2480,9220,2208,480,4800,4279
10049000,2012,-3698,199,-160,387,8217,-4361,2175,8311,1912,480,4760,4319
10101000,2214,-2872,8,-38,1742,7240,10286,7607,7997,4221,599,4879,4279
10149000,2280,-2885,-98,24,1356,10170,-11624,5043,8585,4282,599,5120,4240
10201000,2478,-3281,-84,48,1475,13100,-4849,771,10443,715,599,5959,3520
10249000,2710,-3123,91,-10,712,14198,5037,161,9779,1054,480,5920,3520
10301000,3027,-2945,47,168,-327,16152,-1798,1625,8438,1722,480,5840,3520
10349000,3267,-3049,73,-48,1273,14748,-7352,-449,7625,1867,480,5759,3640
10401000,3370,-3108,147,-87,1035,10109,2779,-327,6568,1594,480,5560,3640
10449000,3543,-2908,-18,26,2039,17494,3756,-144,4988,2390,480,5160,3719
10501000,3653,-3126,228,12,1796,8766,-10892,-144,4038,2380,359,5000,3919
10549000,3421,-3269,201,264,856,2541,5098,-693,4731,2084,480,5039,4000
10601000,3182,-2719,26,62,259,3212,15291,-22,5332,3840,240,4960,4000
10649000,3326,-2336,53,-38,1782,13405,4427,1015,4572,5028,599,4800,4040
10701000,3646,-2676,-16,179,34,13039,-10037,-693,2379,3971,240,4440,4000
10749000,3728,-2800,-106,40,822,3212,3756,283,1995,3645,480,4400,4040
10801000,3619,-2343,12,-25,1189,466,9188,832,1742,5090,480,4200,4040
10849000,3489,-2144,52,-93,1174,-205,-394,405,2117,5441,240,4240,3959
10901000,3162,-2301,-244,-103,88,-4660,-2469,-22,-486,4976,480,2999,3959
10949000,2880,-2224,39,-122,1238,-3623,3695,-144,-1764,5143,599,2320,3959
11001000,2816,-2222,35,89,674,2785,-333,-327,-4488,4852,599,1319,3840
11049000,2939,-2493,-141,152,1061,2785,-3140,39,-6249,4298,599,840,3880
11101000,2807,-2735,142,215,-41,-11252,2230,161,-8303,3312,599,39,3840
11149000,2592,-2762,271,168,1110,-15219,460,1564,-7661,2243,480,79,3520
11201000,2216,-2966,266,-50,1590,-14182,-3201,832,-6408,-259,480,79,2880
11249000,1795,-3179,276,92,546,-13083,1863,-327,-5569,-1445,599,0,2679
11301000,1563,-3112,-21,-105,906,-6797,4000,832,-4689,-1178,599,0,2720
11349000,1692,-3069,39,-2,1050,-1487,277,-388,-5099,-1018,599,-39,2720
11401000,1830,-3124,-172,36,1449,-2890,1314,588,-5611,-1212,599,-39,2720
11449000,1711,-3061,-54,-55,193,-9726,1497,1198,-5253,-1295,480,0,2639
11501000,1429,-3056,262,35,1876,-13877,2108,1747,-4408,-1849,480,-39,2439
11549000,1166,-2916,329,40,2018,-11252,4183,1259,-3696,-1609,599,-39,2400
11601000,1086,-2851,153,113,664,-7651,2657,1931,-3379,-1593,599,-39,2320
11649000,1276,-2936,308,-69,-214,-571,-1920,1747,-3662,-1758,599,0,2320
11701000,1635,-3133,13,34,364,893,-1615,2053,-4906,-2440,599,0,2320
11749000,1754,-3264,6,58,1152,-5637,1497,2114,-5395,-2637,480,-39,2360
11801000,1615,-3407,88,46,802,-9360,-4178,2541,-4965,-3261,480,-39,2320
11849000,1448,-3531,-86,-143,354,-7773,-882,832,-4525,-3524,599,-39,2360
11901000,1435,-3277,-57,-22,1394,-3135,7540,588,-4426,-2633,599,-39,2400
11949000,1616,-3121,75,-36,1193,4860,-3873,39,-4696,-2091,480,0,2400
12001000,2017,-3525,142,64,1922,8034,-5033,-1975,-6051,-3375,480,0,2400
12049000,2267,-3458,-275,21,497,2114,9188,-1975,-6836,-3274,599,-39,2439
12101000,2237,-2947,-100,145,1193,-4843,4976,-1547,-6831,-1762,599,-39,2360
12149000,1985,-3267,139,180,1030,-8017,-10770,-3134,-6235,-2795,599,-39,2239
12201000,1760,-3530,-50,-28,1317,-9970,2535,-2890,-5402,-3871,599,-39,2239
12249000,1654,-3166,131,22,265,-12168,8638,-1914,-5019,-2993,480,0,2239
12301000,1602,-3012,270,141,1126,-6552,-6192,-3134,-4807,-2197,480,0,2279
12349000,1777,-3247,-6,161,100,527,-2286,-3623,-5311,-2768,599,-39,2320
12401000,1950,-2628,34,23,2138,-8567,17611,-1975,-5970,-924,599,-39,2320
12449000,1638,-2359,337,-52,1544,-15708,-4666,-1975,-5246,252,599,-39,2400
12501000,1057,-3007,-44,65,716,-18637,-9915,-3867,-3293,-1823,599,-39,2400
12549000,860,-2738,187,99,993,-9787,21273,-4355,-2594,-2006,480,0,2200
12601000,1170,-1868,-72,217,301,4677,13277,-2280,-3392,393,480,39,2000
12649000,1575,-2359,171,85,335,1259,-20596,-4355,-4600,-322,599,0,2079
12701000,1543,-3208,-43,127,563,-10031,1070,-1731,290,-3384,599,1640,2079
12749000,1218,-2500,54,126,657,-10520,32198,-876,2474,-1776,599,2079,2079
12801000,1278,-1901,147,-88,2201,5348,2596,-22,2523,656,599,2119,2119
12849000,1751,-2482,181,115,1312,12551,-7962,-998,1610,-1014,480,2200,2040
12901000,2187,-2565,218,43,1323,10781,14315,-1059,37,-1575,480,2200,2040
12949000,2334,-2023,131,-62,1363,6935,11812,1015,-494,24,599,2160,2079
13001000,2375,-2315,175,99,471,160,-7779,-266,-646,-706,599,2160,2079
13049000,2227,-2685,126,185,2086,-510,4976,-693,297,-1780,599,2360,2079
13101000,2169,-2450,111,63,1305,5715,10347,649,932,-1110,599,2479,2079
13149000,2352,-2480,88,67,2201,12306,582,-815,544,-865,480,2479,2160
13201000,2658,-2780,110,76,1580,13283,4061,-1486,3784,-1741,480,3919,2200
13249000,3013,-2680,271,233,1222,18654,8455,-1425,3882,-1177,599,4240,2320
13301000,3545,-2740,37,147,400,24025,-1554,-2951,2082,-542,480,4240,2560
13349000,3843,-2977,-37,-40,973,19081,2169,-2951,1420,-1488,359,4279,2479
13401000,3844,-2665,-14,97,1588,11696,11873,-1486,1306,164,359,4279,2720
13449000,3839,-2412,176,100,568,16640,1802,-1242,1218,1800,599,4240,2999
13501000,3996,-2932,102,0,1240,20180,-6925,-1731,730,323,599,4240,3039
13549000,4151,-3110,-183,-76,1254,16274,6807,-83,308,382,599,4240,3280
13601000,4051,-2765,205,175,495,13954,5281,1809,-5195,5262,599,2320,4519
13649000,3986,-3285,-358,33,1637,14382,-18277,466,-5742,4361,480,2079,4600
13701000,3752,-3976,-48,-95,-119,4128,-10404,2541,-5017,1870,359,2079,4600
13749000,3330,-3665,250,15,-154,-5393,8211,1992,-4107,3401,480,2040,4879
13801000,3197,-3444,-279,53,-29,9499,-9488,1931,-3352,4427,480,2079,4920
13849000,3369,-3804,78,15,925,9621,-18460,710,-3781,5496,480,2079,5560
13901000,3313,-3792,162,82,2201,2236,-3690,771,-3939,5542,480,2000,5639
13949000,2951,-3632,-52,-6,553,2602,-6314,2114,-3259,6734,359,1919,5880
14001000,2642,-4028,78,-41,488,3822,-21634,954,-2168,5553,359,1919,5880
14049000,2465,-4452,-279,78,408,4860,-14188,1747,-3053,4546,480,1480,5920
14101000,2216,-4367,-153,-122,1015,38,-7596,1747,-6650,4778,480,0,5959
14149000,1944,-4360,81,49,931,-4172,-15042,1809,-5972,5359,480,0,6120
14201000,1637,-4627,-8,-58,1427,-7163,-17423,1931,-4913,4478,480,0,6120
14249000,1303,-4751,-189,102,1396,-9665,-12479,2724,-4174,4018,359,-39,6080
14301000,1087,-4668,-66,-9,1391,-7407,-10282,2663,-3382,4113,359,-39,6040
14349000,1054,-4511,-170,-26,2201,-4538,-9793,3579,-3258,4478,480,-39,6040
14401000,909,-4459,47,70,235,-12656,-12906,2663,-2849,4861,480,-39,6080
14449000,478,-4556,234,138,1501,-18393,-10465,1809,-1692,4460,359,0,6040
14501000,44,-4550,-101,17,985,-15403,-9000,1015,-253,4348,359,-39,5999
14549000,62,-4339,111,126,859,-6491,-10037,527,-475,4160,480,-119,5759
14601000,227,-4339,47,177,95,-4966,-7596,100,-1042,3422,480,-119,5480
14649000,381,-4411,-75,-66,1489,-4599,-6619,-510,-1429,3192,480,-119,5480
14701000,594,-4251,108,206,405,-3196,-6864,39,-2144,3325,359,-119,5360
14749000,809,-4264,170,56,843,-6552,-7352,344,-2578,2802,240,-80,5200
14801000,821,-4135,183,-17,1961,-12961,-150,1076,-2703,2594,240,-80,5000
14849000,607,-3907,-71,-125,2011,-13816,-1187,1015,-2288,3310,359,-119,5039
14901000,418,-3769,-71,90,381,-10276,-3751,832,-1975,3812,359,-240,5039
14949000,495,-3648,-219,93,444,-6430,-150,1503,-2231,4178,359,-279,5079
15001000,800,-3239,65,78,1703,-4355,1314,1259,-3240,5280,359,-279,5000
15049000,1170,-2931,111,177,1479,-2829,-2713,1809,-3922,5606,240,-199,4839
15101000,1496,-2716,123,116,2119,-4660,-455,2053,-4490,5530,240,0,4560
15149000,1522,-2540,-5,-65,1560,-5210,-150,1381,-4477,5737,359,39,4479
15201000,1409,-2562,202,191,-457,-6552,-4544,2053,-4107,5633,0,39,4440
15249000,1346,-2790,-46,34,1263,-5515,-2103,2297,-4054,4765,-239,0,4360
15301000,1346,-2755,256,-37,1142,-4477,4244,2663,-4040,4574,-239,0,4279
15349000,1447,-2737,64,-72,1204,-1670,338,2541,-4425,3214,-360,-39,3800
15401000,1440,-3089,-29,203,514,-6919,-1065,2480,-4321,330,-119,0,3199
15449000,1254,-3039,-4,-22,1457,-10886,10897,1809,-3887,-1710,-119,0,2520
15501000,1082,-2586,-144,-75,1385,-7102,11507,1809,-3486,-2478,0,-80,1760
15549000,1203,-2434,-45,74,125,-327,5770,1320,-3727,-2299,-239,-80,1679
15601000,1422,-2339,286,-52,1503,-2219,8821,1137,-4267,-2699,-119,0,1440
15649000,1459,-2057,355,99,1950,-5149,12423,2358,-4387,-3088,0,0,1080
15701000,1329,-1887,1,172,1806,-7224,10225,2541,-3868,-3501,0,39,720
15749000,1264,-1830,-28,60,871,-5942,10042,2541,-2229,-4225,0,520,439
15801000,1291,-1747,110,136,-74,-2524,11568,2114,-514,-4522,0,1119,239
15849000,1549,-1725,63,101,497,5837,9127,1442,86,-4321,-119,1519,280
15901000,1908,-1761,-41,-17,21,5959,8760,588,1354,-4445,-119,2360,280
15949000,2076,-1796,203,-3,210,2114,9188,-22,1104,-4742,0,2439,199
16001000,2066,-1841,97,11,736,-693,10897,283,2201,-4445,0,2799,360
16049000,2034,-1809,57,-71,1567,2419,10775,-632,2228,-4089,0,2760,439
16101000,2132,-1915,226,-193,2100,1930,6685,-937,1881,-4665,0,2760,360
16149000,2070,-2277,-65,-158,1645,-327,6563,-937,1856,-5590,-119,2720,360
16201000,2093,-2272,-48,-16,504,7057,13460,-1975,1999,-6218,-239,2760,199
16249000,2138,-2074,20,27,913,4189,11812,-1242,1870,-5547,-119,2760,239
16301000,2084,-2182,-195,-91,925,2175,4793,-571,2026,-5108,-119,2760,480
16349000,2215,-2160,-210,-55,1825,9499,13338,-1853,1767,-4313,-360,2760,759
16401000,2475,-1917,-162,-165,692,11452,11629,-3684,852,-2272,-360,2760,1159
16449000,2605,-1916,-104,-119,1465,10170,6624,-3623,1338,-928,-239,3039,1600
16501000,2651,-1900,-90,-78,230,8888,7601,-3745,4644,-62,-239,4200,1879
16549000,2842,-1938,-35,-162,896,17983,-89,-4782,4372,-99,-239,4240,1879
16601000,3505,-2462,39,-8,841,24635,-11563,-6430,2083,-1746,-239,4200,1879
16649000,3979,-3074,-52,90,756,18105,-2530,-6735,664,-3443,-360,4159,1879
16701000,4110,-2866,93,87,591,12734,10530,-4416,28,-2960,-360,4119,1879
16749000,4084,-2927,177,217,1338,13527,-9732,-4721,-2623,-2802,-119,3199,1919
16801000,3879,-3582,133,-91,1228,5226,-6070,-5515,-4439,-3906,-119,2400,2279
16849000,3210,-3065,-160,-51,624,-9665,24691,-4904,-3936,-2401,0,2040,2439
16901000,2408,-2443,-72,-186,1713,-4599,-2469,-5454,-2424,589,119,1600,2639
16949000,2422,-3186,34,-85,2201,13466,-12357,-5210,-2679,-1123,0,1480,2679
17001000,2879,-3034,149,146,845,15419,20235,-5026,-4318,-1063,0,1440,2679
17049000,2995,-2428,-54,87,245,5898,6380,-266,-4620,668,119,1480,2679
17101000,2624,-2950,-110,-64,803,-4782,-16568,-1425,-3433,-92,119,1480,2920
17149000,2015,-3137,81,174,438,-9848,7296,-22,-1942,-417,0,1480,3039
17201000,1634,-2754,331,-79,1050,221,-882,1259,-1064,1336,0,1280,3199
17249000,1780,-3182,16,32,1613,9682,-16507,-83,-1830,570,119,1119,3280
17301000,1891,-3298,269,87,908,2785,6624,344,-2794,-175,119,959,3239
17349000,1754,-2499,-142,-121,793,893,14742,3151,-3317,2032,119,680,3320
17401000,1635,-2292,359,153,784,2846,-6253,2053,-3107,2963,119,599,3280
17449000,1539,-2845,-41,134,273,-1975,-8573,1809,-2737,1787,0,639,3359
17501000,1358,-2782,-81,-17,604,-3806,9737,1809,-4074,2331,0,0,3559
17549000,1319,-2363,57,-73,277,-2036,2596,2236,-3747,3654,119,79,3640
17601000,1296,-2521,85,32,1251,-2646,-10037,527,-3768,4316,119,39,3959
17649000,1122,-2863,151,71,1559,-7163,-4422,2236,-3460,3773,119,0,4080
17701000,701,-2953,241,59,1349,-10459,3450,2236,-2104,3378,119,0,4080
17749000,397,-3090,143,63,1665,-7590,-3140,2053,-1411,3078,0,-39,4080
17801000,307,-3387,75,32,1129,-6736,-6253,1564,-1042,2198,0,-39,4119
17849000,388,-3577,130,26,265,-6125,-6009,954,-1092,1688,119,0,4119
17901000,566,-3686,94,-46,1594,-3867,-7108,1259,-1700,1899,119,0,4319
17949000,794,-3626,61,45,1619,-2768,-4056,-83,-2638,3100,119,-119,4679
18001000,918,-3637,215,145,2201,-3379,-11319,893,-3236,4087,0,-160,5000
18049000,835,-4011,133,118,1412,-3806,-16873,1259,-2924,3907,119,-119,5239
18101000,685,-4284,154,87,751,-8384,-9915,2724,-2055,3346,119,0,5399
18149000,438,-4313,186,-55,1234,-11191,-10098,2236,-1427,3505,119,0,5480
18201000,340,-4439,385,109,976,-6797,-13272,2114,-1020,2880,119,0,5399
18249000,576,-4305,16,109,1107,-571,-1065,1137,-1560,2945,0,0,5360
18301000,919,-3704,198,29,421,588,-455,649,-2877,4727,0,-39,5280
18349000,1298,-3668,278,118,1493,3578,-19742,-754,-3717,5022,119,0,5280
18401000,1592,-4123,128,155,1289,-2707,-16568,-83,-4656,3590,119,39,5320
18449000,1311,-3821,5,-144,1031,-17234,2779,39,-4204,4320,119,0,5360
18501000,745,-3388,13,165,897,-15036,-8389,1809,-2237,6034,119,0,5399
18549000,754,-3638,-49,112,1152,1015,-21390,1747,-2209,5380,0,-39,5360
18601000,1139,-3811,102,65,964,-754,-7718,893,-3417,4644,0,0,5360
18649000,1093,-3605,10,98,2201,-8750,-6497,2541,-3398,3982,119,0,4960
18701000,582,-3865,277,17,742,-18271,-17484,1747,-1746,2202,119,0,4600
18749000,299,-3927,38,202,748,-7468,-1065,649,-804,1449,0,39,4440
18801000,640,-3430,-173,119,253,3029,4061,893,-1562,1348,0,120,3880
18849000,1022,-3298,274,28,1531,-2036,-11380,-1303,168,667,119,1040,3480
18901000,1082,-3442,56,155,315,-9970,-943,405,232,-366,119,1159,3320
18949000,1239,-2836,241,-172,1334,-5027,9554,-22,151,1124,119,1240,3320
19001000,1639,-2563,139,-41,213,4006,-7047,-449,-958,1788,119,1319,3159
19049000,2085,-2927,163,56,1311,1686,-8328,-327,-1552,509,0,1519,3039
19101000,1993,-2877,-230,-41,-371,-7956,9066,1442,-339,-112,0,1879,2839
19149000,1899,-2569,-126,-114,803,2907,7357,1442,1566,-371,119,2400,2479
19201000,2392,-2533,-45,-60,865,14809,1192,-388,982,-1239,119,2720,2119
19249000,2872,-2634,-47,89,296,12612,6197,527,-188,-1685,119,2760,2079
19301000,2976,-2450,47,-205,702,7057,5953,1259,-530,-1230,119,2799,2040
19349000,2883,-2461,78,-8,410,466,5465,222,-227,-1621,119,2839,1919
19401000,2582,-2357,299,56,1765,-4538,5648,1137,651,-1433,119,2799,1879
19449000,2285,-2437,229,97,2078,-205,1497,2236,1601,-1558,119,2839,1879
19501000,2304,-2638,74,7,2,8827,2413,1442,1607,-2034,119,2839,1960
19549000,2426,-2618,-102,7,662,8400,6685,2175,1290,-2000,0,2839,1960
19601000,2576,-2588,30,-57,1005,8339,2718,2053,2590,-2004,0,3440,1919
19649000,2581,-2811,267,-87,675,4372,887,1015,5018,-2524,119,4279,1919
19701000,2382,-2955,39,-71,1238,4982,8455,1381,5811,-3106,119,4319,1919
19749000,2234,-3014,-39,-92,465,5776,4366,954,6085,-3081,119,4279,1960
19801000,2252,-3263,176,17,2022,8156,2596,161,6083,-3911,119,4279,1960
19849000,2235,-3233,176,31,2135,8522,9493,893,6012,-3891,0,4240,1960
19901000,2326,-3011,-32,67,850,12123,9066,-83,5859,-3153,0,4279,1960
19949000,2461,-3042,-130,117,368,12306,1802,-327,5500,-3288,119,4279,1919
20001000,2570,-3078,-119,-44,274,10842,8272,161,5129,-3596,119,4279,1879
20049000,2593,-2864,-195,-131,1061,8278,10714,-266,4909,-2839,0,4240,1960
20101000,2583,-2902,-34,118,-730,11208,-2103,-815,5090,-2826,0,4279,1960
20149000,2610,-3227,91,-33,1397,10353,3145,-22,4776,-3831,119,4200,1919
20201000,2567,-3056,59,-143,843,7424,11812,710,1658,-3290,119,3120,1960
20249000,2543,-2900,130,-12,703,7607,887,466,1253,-2535,119,2960,2040
20301000,2508,-3015,128,-28,1376,3578,-150,-205,1235,-2926,119,2920,2040
20349000,2196,-2724,56,-107,1168,-4050,16512,588,1973,-2321,0,2920,2040
20401000,1823,-2179,19,-162,930,-1120,9432,1320,2810,-298,0,2760,2079
20449000,1768,-2409,26,12,727,1869,-4422,-510,2237,-80,119,2520,2320
20501000,1707,-2498,-132,-32,2201,-1242,9005,-83,1117,-536,119,2079,2320
20549000,1548,-2274,213,-111,1227,-4966,7601,771,667,235,119,1800,2360
20601000,1333,-2633,-106,-79,1193,-4538,-5155,-571,559,-460,119,1519,2479
20649000,1216,-2899,-107,47,652,-5698,4427,405,830,-933,0,1519,2600
20701000,1071,-2537,173,-72,1601,-7163,14071,2358,1226,426,119,1480,2679
20749000,1055,-2334,49,-21,830,-3135,1070,1503,1435,1169,119,1519,2720
20801000,1096,-2536,124,-23,1176,-4599,-4666,893,1149,1269,119,1480,2960
20849000,1028,-2374,192,228,220,-8872,8272,1992,1291,1586,0,1480,2960
20901000,977,-2280,163,-15,1688,-6552,-577,2907,1508,2879,0,1480,3239
20949000,1109,-2768,114,-113,791,-3257,-8878,954,1821,1828,119,1679,3280
21001000,1192,-3125,233,61,111,-5881,887,1686,3261,104,119,2279,3159
21049000,1188,-3050,102,190,831,-6003,4000,2663,3398,502,119,2320,3239
21101000,1320,-3029,-133,-112,1949,-1303,-5033,1747,3117,752,119,2360,3280
21149000,1493,-2964,-2,81,-189,-3623,887,1686,3162,1693,0,2520,3559
21201000,1646,-2717,24,65,102,-4599,1802,2480,4779,2526,0,3239,3559
21249000,1688,-2797,39,-1,1694,-3257,-7291,2114,4834,2448,119,3280,3559
21301000,1870,-3190,107,82,496,3456,-9488,1015,4229,1228,119,3280,3599
21349000,2243,-3243,-96,175,649,6020,-150,1503,3317,1121,0,3280,3640
21401000,2641,-3089,62,-56,805,99,-3995,1198,1914,1890,0,3280,3719
21449000,2617,-3290,-112,-12,221,-5332,-8695,649,1939,1369,119,3280,3719
21501000,2307,-3326,14,-5,2201,-5088,-394,588,3036,1421,119,3320,3800
21549000,2170,-3227,45,-84,807,1564,-4605,222,3354,1717,119,3280,3800
21601000,2248,-3521,90,52,-170,2968,-11380,-815,2733,1075,119,3159,3880
21649000,2344,-3609,301,166,2201,1991,-1737,283,1136,1839,0,2720,4240
21701000,2195,-3298,177,-70,931,-1670,2657,771,612,3303,0,2400,4400
21749000,2037,-3319,192,68,792,-2402,-9183,-632,1148,3522,119,2439,4440
21801000,1924,-3759,65,197,1,-4172,-9305,-632,1427,2040,119,2400,4440
21849000,1870,-3630,14,4,2194,-2646,2718,-83,1567,2374,0,2400,4479
21901000,2013,-3460,-138,-75,652,2785,-4544,161,1159,3057,0,2400,4479
21949000,2241,-3739,-88,139,-613,3395,-14188,-1059,524,2519,119,2400,4519
22001000,2240,-3761,-62,-50,2194,-1303,1070,161,358,2276,119,2360,4519
22049000,2027,-3485,-100,-97,1919,-510,-1248,710,1031,3040,119,2400,4519
22101000,2014,-3824,150,160,756,2968,-15775,-998,1156,2087,119,2400,4519
22149000,2027,-4257,-25,130,617,-1670,-7596,527,1100,868,0,2400,4519
22201000,1924,-3801,-95,-23,1813,-4660,6685,832,1427,2035,0,2400,4479
22249000,1902,-3528,25,-36,987,-22,-9976,466,1523,2404,119,2400,4319
22301000,2109,-4029,56,179,908,4189,-14249,-510,751,870,119,2360,4319
22349000,2409,-3944,151,0,426,4250,1192,1137,53,739,119,2360,4279
22401000,2681,-3601,105,27,565,2785,-5338,1442,-1685,1554,119,2119,4119
22449000,2745,-3747,317,211,-32,588,-11502,1320,-2824,637,0,1800,3919
22501000,2569,-3714,307,-42,817,-5088,399,2114,-3027,-703,119,1559,3480
22549000,2213,-3360,174,-108,1384,-7468,5220,2114,-3111,-520,119,1240,3239
22601000,1816,-3210,189,168,1741,-6919,-5948,1809,-2328,-630,119,1040,2999
22649000,1625,-3279,-8,-31,301,-4416,-4300,1686,-2757,-2320,0,720,2520
22701000,1607,-2893,237,80,1365,-4233,6197,1442,-3262,-1481,0,520,2400
22749000,1630,-2588,155,242,1206,-4721,3328,2297,-4170,-1083,119,239,2239
22801000,1577,-2859,186,14,-567,-7895,-5460,1992,-4371,-2817,119,120,1919
22849000,1549,-2890,44,99,816,-8139,6929,1442,-4416,-3744,240,79,1679
22901000,1610,-2513,134,148,1141,-4172,9249,1625,-4590,-2979,240,79,1519
22949000,1714,-2354,13,54,1285,-3318,704,405,-5001,-2526,240,39,1519
23001000,1754,-2411,89,131,331,-5393,4183,588,-5264,-3515,240,0,1240
23049000,1667,-2252,180,50,1344,-6186,7906,1747,-5074,-3170,359,0,1240
23101000,1652,-2264,65,-108,1414,-3623,-455,1686,-4956,-3313,359,0,1159
23149000,1680,-2588,268,-27,709,-5027,-1554,1259,-5063,-4376,240,0,1080
23201000,1655,-2536,-237,-74,1275,-5515,6990,1992,-4966,-4730,240,0,959
23249000,1597,-2434,119,-142,839,-5271,-1676,1015,-4701,-4349,359,39,959
23301000,1709,-2724,121,98,-227,-571,-2103,893,-5007,-5174,359,39,999
23349000,1975,-2611,258,-56,1293,2297,9127,588,-5587,-3975,359,79,1319
23401000,2055,-2368,108,-7,732,4433,5159,39,-406,-2424,359,1919,1559
23449000,2065,-2599,-203,53,110,3945,-2347,-571,389,-2937,240,2200,1559
23501000,2114,-2705,-1,-69,2201,4311,7845,-449,1816,-3315,240,2720,1600
23549000,2150,-2419,203,-182,1770,5531,8577,-449,3163,-2637,359,3199,1559
23601000,2401,-2648,-147,24,1330,15846,-3812,-937,4556,-2904,359,3919,1679
23649000,2762,-2810,-69,-4,-103,15175,7296,-1364,3858,-2920,240,4000,1840
23701000,2950,-2464,-181,-125,1121,13893,10103,-22,3867,-434,240,4240,2320
23749000,3161,-2565,328,-114,1901,16457,-4300,-815,3448,-241,359,4279,2400
23801000,3342,-3088,95,38,23,14076,3145,-815,2932,-2065,359,4319,2400
23849000,3229,-2878,18,-9,891,5104,13216,1198,3037,-1405,359,4279,2479
23901000,2909,-2788,137,-81,1326,3578,-3629,771,3991,-685,359,4240,2560
23949000,2701,-3133,230,20,1968,5837,-5338,-510,1873,-890,240,3359,2799
24001000,2512,-2929,24,15,975,4250,14620,1320,383,812,240,2639,3199
24049000,2290,-2586,222,-57,1604,4067,2840,1259,-353,2406,359,2200,3399
24101000,2103,-3129,148,12,501,2114,-11807,-83,-1271,1892,359,1679,3759
24149000,1831,-3483,300,32,2133,-1609,1925,-83,-749,827,240,1640,3759
24201000,1485,-3172,0,-56,1836,-632,8638,1870,582,1763,240,1679,3759
24249000,1509,-3117,13,-67,1319,5837,-3873,-693,2277,1990,359,2239,3759
24301000,1647,-3358,140,62,312,4128,-3201,-1120,2257,1203,359,2400,3759
24349000,1557,-3232,-27,175,1356,832,7662,344,2345,1401,359,2360,3759
24401000,1480,-3059,171,-131,532,771,-3934,39,2519,2102,359,2320,3759
24449000,1486,-3333,168,100,-692,2052,-7291,-144,2399,1434,240,2279,3759
24501000,1561,-3372,169,-6,1729,893,1314,710,2035,1523,240,2239,3880
24549000,1507,-3317,96,-133,1826,-266,-272,588,1172,1826,359,1919,3919
24601000,1495,-3483,16,79,1184,1930,-6741,-144,312,1310,359,1600,3919
24649000,1421,-3626,-11,-126,753,-693,-1798,-510,-718,1337,359,1199,4080
24701000,1293,-3458,74,7,679,-1548,93,-205,-1480,2224,240,799,4200
24749000,1154,-3603,-1,74,-373,-3135,-7535,-693,-999,1823,359,840,4159
24801000,1032,-3746,213,43,491,-6125,-455,-998,-457,1360,359,880,4200
24849000,1022,-3573,142,201,-102,-3012,2901,527,-420,1648,359,880,4159
24901000,1153,-3747,-124,3,1103,710,-13150,-754,-820,1236,359,880,4159
24949000,1301,-4050,395,16,1207,-327,-7596,-815,-1241,429,240,880,4159
25001000,1315,-3768,92,-141,2201,-3318,7845,1259,-1307,1175,240,880,4159
25049000,1172,-3562,81,-102,1149,-3806,-3934,344,-927,1666,359,880,4119
25101000,1120,-3821,213,86,1166,-3135,-8450,-815,-600,1014,359,920,4159
25149000,1094,-3957,-97,68,760,-2097,-394,-510,-633,576,359,880,4159
25201000,1138,-3892,-77,144,624,2052,-2469,-510,-774,801,240,880,4159
25249000,1346,-4081,79,146,2201,2175,-8023,-510,-1315,246,359,880,4119
25301000,1328,-4203,115,-73,1080,-3073,-699,-388,-1226,-249,359,920,4119
25349000,1115,-3987,100,-99,2201,-5942,1741,649,-1184,305,359,759,4119
25401000,1013,-4026,150,121,1335,-3684,-7230,1198,-1959,279,359,360,4119
25449000,1027,-4122,237,21,1606,-2768,-1798,649,-2479,-23,240,199,4119
25501000,1047,-3940,161,256,1786,-4599,-455,1625,-2901,539,240,79,4119
25549000,1050,-3932,55,47,2201,-3501,-6864,1686,-2898,624,359,79,4119
25601000,1127,-4080,121,137,1755,-3318,-2957,1503,-3141,119,359,79,4119
25649000,1184,-4095,254,74,2201,-2890,-2042,2053,-3415,317,359,39,4200
25701000,1174,-4204,104,-15,568,-3623,-5887,1259,-3283,106,240,79,4240
25749000,1224,-4331,21,52,1393,-4172,-3629,1137,-3397,-376,359,79,4200
25801000,1142,-4319,276,-48,2201,-7956,-1798,1503,-3188,-357,359,79,4200
25849000,930,-4352,303,101,2201,-6247,-3690,1259,-2645,-418,359,79,4200
25901000,830,-4403,8,191,542,-2890,-2347,1503,-2252,-609,359,79,4200
25949000,885,-4248,167,-49,1025,-4233,-211,771,-2405,-114,240,79,4240
26001000,837,-4133,20,166,313,-9116,-3385,1809,-2272,318,240,79,4240
26049000,943,-4070,-78,-60,1434,-7163,-2835,832,-2478,198,359,79,4159
26101000,1248,-3763,81,122,-495,-4843,887,1076,-3386,1310,359,120,4200
26149000,1758,-3411,96,190,1432,-2219,-2713,1076,-4751,2185,240,79,4200
26201000,1952,-3391,330,143,276,-6064,-4666,771,-4896,2426,240,320,4200
26249000,1957,-3388,105,258,-231,-6919,-821,1381,-4418,2235,359,480,4159
26301000,2032,-3177,280,31,1926,-6430,-1676,771,-3338,2948,359,920,4159
26349000,1983,-3120,135,-26,400,-6064,-4178,-144,-3077,3113,359,959,4159
26401000,1858,-3197,-109,65,1095,-7651,-2469,527,-2696,2887,359,959,4159
26449000,1766,-3221,273,-52,2201,-3928,-1920,-83,-1472,2949,240,1280,4200
26501000,1733,-3357,360,30,-74,-2341,-5216,-388,-521,2406,240,1559,4159
26549000,1787,-3385,144,202,119,-1242,-394,-22,-531,2191,359,1600,4119
26601000,1786,-3291,-4,-69,1152,-2524,765,-266,-559,2606,359,1600,4159
26649000,1724,-3206,320,-29,1149,-2463,-1431,-632,-258,2811,240,1640,4159
26701000,1658,-3129,255,134,425,-4050,2474,-876,1743,3090,240,2239,4159
26749000,1662,-3041,209,231,1642,-815,3817,-693,2011,3222,359,2320,4119
26801000,1822,-3039,6,-101,1325,1686,826,-1608,1733,3242,359,2400,4119
26849000,1921,-3053,106,-53,-471,282,4183,-1425,2302,2423,359,2679,3880
26901000,1904,-2916,196,-159,1433,-3257,4549,-1181,3886,2050,359,3199,3599
26949000,1862,-2864,268,-114,1337,-937,2840,-1547,5319,2239,240,3640,3599
27001000,2016,-2895,-107,62,1902,3700,3817,-2036,6909,2232,240,4319,3640
27049000,2249,-2841,14,-22,1868,6935,4854,-1181,6457,2278,359,4360,3599
27101000,2508,-2866,21,-20,730,8888,3206,-1425,5434,2200,359,4319,3599
27149000,2579,-2861,-186,-124,1848,4311,7845,-1181,5921,2168,240,4560,3599
27201000,2509,-2620,203,217,799,3761,9554,-1608,7591,2938,240,5039,3599
27249000,2613,-2473,213,188,379,9072,4549,-1792,7486,3365,359,5079,3599
27301000,2931,-2561,281,168,1117,12428,8211,-2158,6324,2994,359,5039,3559
27349000,3083,-2612,68,197,557,8217,10042,-1059,5897,2893,359,5039,3559
27401000,3032,-2794,-56,-67,2201,4799,4976,-205,6023,2297,359,5039,3559
27449000,2994,-2972,61,150,829,8827,6563,-266,6206,1695,240,5039,3520
27501000,3212,-2921,73,-130,1993,13039,8577,39,5602,1794,240,5079,3520
27549000,3399,-2969,104,-59,888,12978,2901,-327,5121,1843,359,5079,3559
27601000,3373,-3195,50,9,1016,9133,765,-998,5000,1333,359,5039,3640
27649000,3284,-3100,158,100,565,9926,10103,-388,5250,1714,240,5039,3719
27701000,3392,-2913,135,141,1766,16274,7601,649,4461,2658,240,4879,3800
27749000,3546,-2993,-16,45,805,14626,948,-510,3701,2944,359,4760,3959
27801000,3502,-3278,-79,-93,1927,9926,-516,466,3891,1924,359,4800,3919
27849000,3323,-3508,-147,-179,571,6203,826,222,4201,1441,359,4760,3959
27901000,3103,-3736,-43,112,859,7607,32,-1120,4850,670,359,4719,3959
27949000,3033,-4072,-51,85,1476,7912,-3079,-1792,3702,-289,240,4279,3919
28001000,2961,-4178,20,-21,1688,7851,4183,-1914,-723,-776,359,2720,3919
28049000,2867,-3810,13,-87,341,4738,11629,-2341,-2295,240,359,2119,3959
28101000,2677,-3615,-94,-26,809,1076,460,-3195,-2511,1034,359,1840,3959
28149000,2394,-3666,158,45,926,-3745,3878,-2463,-2448,891,240,1640,3959
28201000,2000,-3247,-16,95,608,-4233,15413,-1853,-1082,2138,240,1640,3959
28249000,1751,-3014,88,10,746,-1120,2596,-2463,-294,2899,359,1679,3959
28301000,1596,-3260,-45,127,875,-22,-1431,-2585,610,2219,359,1800,4000
28349000,1527,-3104,118,67,2201,38,11324,-2707,791,2793,359,1800,4080
28401000,1454,-2894,178,187,1124,-937,826,-693,1156,3675,359,1840,4119
28449000,1462,-3156,254,115,780,2358,-8817,-1914,1064,3429,359,1800,4240
28501000,1411,-3184,-177,-109,268,-3012,7112,-815,1406,3285,359,1879,4279
28549000,1277,-3069,13,-14,-4,-3684,-1065,344,1604,3951,359,1840,4360
28601000,1252,-3695,16,-29,449,-693,-13822,-1669,2243,1992,359,2000,4360
28649000,1203,-4009,267,139,1551,-6186,1497,-510,2319,1139,240,2000,4400
28701000,983,-3617,-15,-88,872,-8628,9127,527,3050,2348,240,2000,4400
28749000,915,-3581,197,-79,1455,-5759,-6497,-1059,3291,2442,359,2000,4360
28801000,1029,-3902,97,-22,1370,-3684,-6375,-1547,3030,1373,359,2040,4360
28849000,1116,-3664,104,232,217,-3867,9310,-449,2698,1814,240,2000,4360
28901000,1246,-3242,10,-67,1127,-3867,2718,1076,2260,3592,240,2000,4440
28949000,1348,-3280,81,-143,1523,-5332,-4666,-1242,1878,3562,359,1960,4440
29001000,1282,-3362,-96,26,-1020,-6919,-4056,-1242,2271,3233,359,2040,4440
29049000,1349,-3174,-269,78,404,-5881,-2652,-449,2031,4188,359,2000,4640
29101000,1435,-2791,199,43,462,-5515,-7352,-754,1694,6145,359,2000,4839
29149000,1501,-2791,151,77,2201,-2463,-9061,-388,1385,6201,240,1960,4839
29201000,1551,-2886,-103,26,-1159,-2402,-7596,-327,1346,5981,240,2000,4879
29249000,1541,-3151,-173,-129,-694,-4599,-9366,-1486,1346,5182,359,2000,4839
29301000,1487,-3515,-92,137,600,-6003,-10404,-1425,1538,3494,359,2000,4679
29349000,1494,-3552,154,-64,1629,-5576,-7291,-1242,1430,3478,240,1960,4719
29401000,1508,-3628,220,-11,390,-3623,-6314,-1486,1835,3274,240,2119,4719
29449000,1619,-3744,50,62,-104,-632,-7108,-1547,1918,2712,359,2239,4640
29501000,1773,-3846,-66,-31,834,1503,-5338,-1303,1878,2501,359,2400,4679
29549000,1851,-3884,152,107,824,282,-4971,-1914,1538,2449,359,2360,4679
29601000,1917,-3904,93,166,987,-266,-6253,-1669,1447,2446,359,2400,4719
29649000,1981,-3938,59,117,1468,-388,-4178,-754,1199,2349,240,2360,4719
29701000,2050,-3944,168,-44,901,-1364,-4239,-1120,1049,2325,359,2400,4719
29749000,2049,-3900,59,129,92,-815,-5704,-1975,1022,2554,359,2400,4760
29801000,2080,-3897,-65,120,164,-266,-2530,-1303,839,2468,359,2360,4719
29849000,2174,-3924,60,66,1275,588,-3385,-998,395,2452,240,2279,4719
29901000,2233,-4016,-38,-36,973,2052,-2591,-1792,380,2111,240,2360,4719
29949000,2297,-4049,-94,22,1395,2236,-821,-1364,106,1982,359,2320,4719
30001000,2303,-3711,21,39,2201,1442,5098,-1303,-70,3026,359,2279,4719
30049000,2136,-3559,-58,98,691,99,-1004,-693,466,3481,359,2320,4719
30101000,1917,-3795,359,-104,1681,-2158,-1859,-693,1088,2772,240,2279,4719
30149000,1742,-3817,145,-15,301,-1853,5342,-937,1301,2621,359,2200,4719
30201000,1640,-3778,143,-60,-71,-327,-2225,-937,1319,2705,359,2079,4679
30249000,1677,-3929,-1,43,1497,710,-5033,-571,1211,2383,359,2079,4719
30301000,1777,-3742,56,25,1191,1198,4000,222,187,2932,359,1840,4719
30349000,1849,-3560,36,-81,533,-1120,-4361,161,-244,3591,240,1760,4760
30401000,1841,-3946,95,-146,761,-1181,-12967,-205,-363,2441,240,1719,4760
30449000,1724,-4049,136,108,81,-4721,2718,1015,152,1936,359,1800,4719
30501000,1655,-3755,-176,-27,1052,-2463,2535,1931,433,3013,359,1800,4760
30549000,1705,-4028,60,-54,1412,-571,-10282,161,343,2433,240,1800,4760
30601000,1820,-4384,-1,-3,2029,710,-3934,588,-302,1127,240,1719,4760
30649000,1863,-4170,-160,170,397,1137,4183,1747,-38,1493,359,1840,4719
30701000,1924,-4185,226,-61,1506,588,-7901,954,-254,1604,359,1840,4719
30749000,1953,-4463,56,85,1012,-1059,-2713,954,-333,922,359,1840,4760
30801000,1881,-4275,-26,137,859,-2036,4976,1320,-243,1333,359,1800,4719
30849000,1851,-4215,-120,135,1014,343,-2469,1503,22,1295,240,1840,4640
30901000,1817,-4358,136,-14,1573,-3379,-1920,1198,-52,844,359,1800,4640
30949000,1739,-4106,312,210,721,-2768,6746,1381,267,1391,359,1840,4640
31001000,1784,-3857,5,145,1169,-510,-2286,1015,166,2468,359,1840,4679
31049000,1913,-4111,76,191,597,1503,-7962,649,107,1807,240,1919,4679
31101000,2026,-4000,129,151,365,-1670,4366,954,-320,1917,240,1919,4640
31149000,2062,-3737,85,202,-66,282,-150,1747,-50,2641,359,2040,4640
31201000,2193,-3795,80,116,972,2907,-5948,466,-341,2534,359,2079,4640
31249000,2186,-3706,-3,74,1460,-83,2047,405,-469,2775,359,2040,4679
31301000,2164,-3588,71,125,60,38,-3262,283,-374,3275,240,2040,4679
31349000,2167,-3814,27,148,272,954,-7657,-693,-519,2376,359,2000,4560
31401000,2144,-3782,221,163,1887,-1059,5159,405,47,2093,359,2160,4479
31449000,2071,-3491,-95,-9,1082,-1364,3695,771,362,2854,359,2200,4479
31501000,2019,-3562,96,-44,883,-1059,-7108,100,540,2751,359,2200,4479
31549000,1911,-3753,-118,43,591,-2829,-943,-937,891,1971,240,2239,4400
31601000,1816,-3535,-245,128,1366,-1609,6258,39,1391,2474,240,2279,4360
31649000,1799,-3601,-9,96,156,221,-6925,-144,1829,2337,359,2400,4319
31701000,1920,-4183,128,-59,2201,1747,-8756,-205,1318,288,359,2360,4279
31749000,1898,-4138,97,171,1994,-2341,8883,-510,1454,363,240,2400,4319
31801000,1772,-3608,54,221,1067,-3501,4000,222,1763,2255,240,2360,4360
31849000,1701,-3749,164,129,2201,-693,-10282,-449,2187,1907,359,2439,4319
31901000,1665,-3947,96,-60,302,-937,1558,710,2323,996,359,2439,4279
31949000,1694,-3518,161,-14,611,1503,11080,1870,2269,2166,359,2439,4319
32001000,1851,-3476,199,61,399,5165,-5765,1320,1645,2171,359,2400,4200
32049000,2009,-3795,263,161,-1,3334,-3507,1686,1580,1214,359,2520,4159
32101000,2023,-3584,-45,-131,-114,343,9737,2663,1849,1487,359,2639,4080
32149000,2070,-3333,-84,-55,605,3151,3756,2236,2707,892,359,2960,3640
32201000,2257,-3529,138,43,806,4555,-6741,710,2828,-29,359,3199,3520
32249000,2309,-3652,70,52,271,2052,5709,527,2548,-546,240,3159,3480
32301000,2338,-3349,-44,-181,493,4921,8638,1259,2705,271,240,3239,3440
32349000,2510,-3344,-138,-72,776,9743,-2591,-510,2310,523,359,3239,3480
32401000,2736,-3562,19,64,65,9010,1619,-1181,1390,-966,359,3199,3239
32449000,2826,-3445,100,156,1217,5837,11019,527,1142,-1076,240,3199,3120
32501000,2856,-3269,106,64,871,2541,3145,1076,1031,-1167,240,3199,2880
32549000,2716,-3453,130,-83,1168,-3440,32,-815,1356,-1711,359,3199,2839
32601000,2408,-3354,96,126,650,-4905,10103,-1120,2373,-1664,359,3199,2799
32649000,2293,-3187,-75,231,625,-937,3756,222,2095,-1099,359,2999,2839
32701000,2367,-3359,-45,112,838,1564,-516,-815,576,-1437,359,2560,2880
32749000,2434,-3331,153,71,436,-22,9432,-1059,-194,-1557,240,2360,2839
32801000,2405,-3217,-81,104,782,38,4183,405,-377,-1131,359,2279,2839
32849000,2420,-3540,33,74,640,4189,-3873,-510,-663,-1755,359,2200,2880
32901000,2480,-3645,-49,91,1553,3761,8883,-22,-840,-2295,359,2200,2880
32949000,2330,-3269,27,-51,1179,-1120,10469,1381,-385,-1312,240,2239,2880
33001000,2105,-3275,-47,-33,271,954,-455,-815,282,-1066,240,2200,2920
33049000,2038,-3391,-4,132,1593,2907,3939,-754,565,-1501,359,2239,2880
33101000,1972,-3310,-85,138,273,2419,8455,222,801,-1411,359,2239,2839
33149000,1907,-3427,-283,81,2201,2236,-2164,100,870,-1516,240,2200,2880
33201000,1766,-3719,410,1,975,-1670,826,-1059,1421,-2519,240,2239,2880
33249000,1586,-3596,50,234,32,-2707,11019,222,1986,-2440,359,2279,2839
33301000,1515,-3413,135,140,1514,221,3756,-144,1813,-1720,359,2119,2839
33349000,1535,-3651,225,210,1311,-1242,-1737,-693,1640,-2152,359,2079,2880
33401000,1425,-3709,178,-50,548,-4721,5526,-205,2084,-2489,359,2119,2880
33449000,1413,-3635,-58,54,527,160,5465,466,2160,-2005,240,2119,2960
33501000,1696,-3725,-55,99,-214,4982,1558,-632,789,-2416,240,1960,2920
33549000,1889,-3808,-155,93,72,527,4427,39,142,-2601,359,1919,2960
33601000,1765,-3674,110,32,540,-5332,3939,283,343,-2144,359,1879,2960
33649000,1628,-3705,151,49,1805,-4660,-943,100,460,-2048,359,1800,2999
33701000,1529,-3682,93,192,-136,-4477,3267,39,452,-1807,359,1679,3080
33749000,1518,-3574,188,151,2201,-2829,3878,771,163,-1392,240,1559,3120
33801000,1654,-3764,192,-23,755,-1120,-5582,405,-524,-1453,240,1480,3280
33849000,1747,-3962,-50,89,820,-2219,338,710,-808,-1806,359,1480,3359
33901000,1698,-3751,-103,34,2112,-4905,5037,1442,-536,-934,359,1519,3440
33949000,1622,-3770,-44,15,101,-5149,-7718,1320,-325,-871,359,1519,3440
34001000,1562,-4152,43,179,809,-5454,-5277,161,-248,-2137,359,1480,3440
34049000,1524,-4110,59,160,-232,-5332,4488,2053,-248,-2114,240,1440,3440
34101000,1544,-4011,166,-53,2086,-2951,-1187,1564,-192,-1715,240,1480,3440
34149000,1694,-4257,146,-25,1900,-266,-5155,161,-706,-2324,359,1440,3440
34201000,1970,-4302,-9,86,756,-1181,1986,283,-1231,-2467,359,1559,3480
34249000,2107,-4261,107,-119,1144,-1792,-2652,-22,-1589,-2047,359,1559,3559
34301000,2147,-4557,93,-110,771,-2585,-3812,-815,-1403,-2993,359,1679,3559
34349000,2093,-4456,177,69,1060,-4843,8150,39,-591,-2929,240,1919,3520
34401000,1984,-4230,16,-27,-2,-266,-1187,-266,1006,-2011,240,2320,3559
34449000,2091,-4547,148,-83,1148,3273,-7352,-1731,902,-3005,359,2360,3480
34501000,2186,-4635,113,168,293,38,5587,-1364,401,-3347,359,2320,3520
34549000,2194,-4265,24,170,1371,221,7784,-83,398,-2418,359,2320,3520
34601000,2310,-4333,85,-5,627,1930,-3629,161,29,-2439,359,2320,3520
34649000,2527,-4261,318,-121,1285,2785,4915,-815,-511,-2102,240,2320,3599
34701000,2638,-3831,232,68,935,160,7418,893,-955,-575,240,2320,3640
34749000,2556,-3801,116,85,1082,-2158,-3934,283,-654,-391,119,2360,3640
34801000,2455,-4066,-146,-81,775,-632,-333,710,-406,-1279,119,2320,3640
34849000,2345,-3950,-170,-150,632,-510,5892,39,-134,-902,119,2320,3680
34901000,2246,-4023,-51,-44,-371,527,-6680,405,100,-1029,119,2279,3680
34949000,2310,-4526,185,-72,1085,4128,-6803,1015,-39,-1992,0,2279,3800
35001000,2350,-4323,59,16,1426,1625,9737,1992,-212,-1450,0,2279,3840
35049000,2348,-4109,-226,-49,2081,2541,-4788,1747,-166,-998,119,2279,3759
35101000,2331,-4333,-79,-124,1753,1869,-9366,1320,-33,-1601,119,2320,3800
35149000,2258,-4154,112,103,-52,-571,4854,1259,32,-821,119,2279,3959
35201000,2220,-3468,42,92,673,2907,2779,2968,57,1714,119,2239,4040
35249000,2414,-3360,-49,-59,1223,6325,-10709,405,-263,2237,0,2279,4080
35301000,2552,-3546,100,55,200,3639,-3446,832,-936,1719,0,2239,4119
35349000,2657,-3358,19,100,359,5531,1253,1870,-924,1941,119,2320,4040
35401000,2771,-3360,137,28,558,4189,-10343,832,-1475,2158,119,2279,4080
35449000,2673,-3563,174,122,-72,-693,-4971,100,-1294,1571,119,2279,4080
35501000,2423,-3490,16,181,1325,-2463,-28,405,-431,1769,119,2279,4080
35549000,2252,-3539,46,80,2118,954,-10709,-388,66,1744,0,2279,4080
35601000,2158,-3742,135,137,132,-1609,-5521,100,365,893,0,2279,4040
35649000,2118,-3579,70,160,788,-327,2352,1503,456,1039,119,2279,3959
35701000,2144,-3500,22,155,208,2175,-4666,1198,407,1377,119,2279,3959
35749000,2162,-3539,196,64,1933,1198,-5887,1320,114,1388,119,2200,4000
35801000,2122,-3421,14,76,992,99,-577,2053,353,1615,119,2239,3959
35849000,2051,-3260,242,78,1838,-83,-4178,1870,634,1922,0,2279,3919
35901000,1969,-3340,-8,-102,1924,1198,-5826,2358,811,1138,0,2239,3719
35949000,1979,-3277,257,-83,1148,1015,-2469,832,1003,792,119,2320,3559
36001000,2014,-3171,-283,0,1174,2419,-6619,1564,916,926,119,2320,3480
36049000,1978,-3212,185,-129,1201,405,-6803,1503,396,859,119,2119,3480
36101000,1922,-3299,21,-111,447,954,-6253,1137,591,542,119,2119,3480
36149000,1920,-3487,95,133,-53,1503,-8573,1320,379,94,0,2040,3480
36201000,2044,-3588,-35,-47,592,954,-8084,1686,-853,-805,0,1760,3320
36249000,2090,-3378,-148,114,-485,-2463,-3507,954,-1231,-929,119,1679,3120
36301000,2341,-3061,-97,90,-140,4311,-9000,344,-2343,56,119,1559,3080
36349000,2797,-2951,-257,-85,918,3456,-10953,-693,-4116,309,119,1359,3080
36401000,3140,-2677,11,39,1896,405,-3995,222,-6541,6,119,959,2679
36449000,3146,-2599,142,-47,1576,-2280,-8756,1015,-6933,-198,0,840,2520
36501000,2875,-2896,-32,-69,1241,-4477,-6680,-266,-5506,-1850,0,1040,2279
36549000,2425,-2932,130,114,1994,-3684,4366,344,-4383,-2625,119,1040,2079
36601000,2103,-2808,246,7,485,2602,765,-266,-3190,-4226,119,1040,1400
36649000,2130,-3071,193,160,1019,5715,-7047,-388,-3238,-6175,119,1040,959
36701000,2063,-3163,-7,191,1461,-693,7601,710,-5349,-7930,119,280,520
36749000,1869,-2710,-14,-3,756,-2646,12850,1809,-4855,-7079,0,280,439
36801000,1756,-2427,220,165,1242,-144,2108,344,-4428,-6682,0,280,199
36849000,1867,-2620,107,214,40,2968,-943,-388,-5020,-7780,119,160,0
36901000,1976,-2416,179,-25,199,-3989,12789,100,-5929,-7370,119,0,-39
36949000,1858,-1867,25,38,465,-8506,10591,588,-5688,-5983,119,0,-39
37001000,1630,-1679,150,40,1280,-9055,1925,-876,-4892,-5038,119,0,0
37049000,1430,-1679,-44,-89,158,-9116,7235,39,-4378,-5093,0,0,0
37101000,1174,-1612,191,-15,310,-11924,3450,222,-3524,-4957,0,0,-39
37149000,963,-1889,156,52,1358,-8994,1375,-83,-2976,-5578,119,0,-39
37201000,977,-1990,184,-38,2000,-3135,8211,-388,-2932,-5970,240,0,0
37249000,1168,-1952,10,102,1311,282,7418,-449,-3393,-5863,240,0,0
37301000,1459,-2126,92,204,652,1930,216,-998,-4377,-6378,119,0,0
37349000,1590,-2198,35,96,2201,-2646,11446,100,-4757,-6799,240,0,-39
37401000,1452,-1869,-134,-71,2201,-3440,13643,405,-4357,-5607,240,0,0
37449000,1410,-1848,-50,-40,1360,-571,826,-266,-4226,-5595,240,0,-39
37501000,1418,-1980,123,72,311,-2524,8089,344,-4256,-6060,240,0,-39
37549000,1427,-1614,96,-14,462,-3257,13338,649,-4396,-5052,119,-39,0
37601000,1340,-1524,257,-82,1065,-8261,2108,832,-4022,-4452,119,0,39
37649000,999,-1655,88,59,619,-14121,3878,893,-3338,-5093,240,-39,-39
37701000,786,-1328,-121,-85,1824,-6919,13460,2053,-2478,-3986,240,-39,0
37749000,956,-1070,0,-114,821,4189,4488,649,-2683,-3209,240,0,0
37801000,1462,-1320,5,-50,395,8583,-272,-449,-4386,-3960,240,0,0
37849000,1823,-1343,-30,101,137,5654,9493,1381,-5335,-4099,119,0,0
37901000,1985,-1103,-168,-148,703,3945,6868,2053,-5957,-3311,119,0,0
37949000,1998,-1127,0,-73,407,-1242,-760,1076,-6038,-3414,240,0,-39
38001000,1751,-1186,123,146,1696,-6186,5648,100,-5255,-3679,240,0,-39
38049000,1493,-1038,286,163,384,-7468,9005,588,-4602,-3130,240,0,0
38101000,1313,-1443,-25,-44,996,-3745,-10037,-632,-3939,-4330,240,0,0
38149000,1317,-2003,165,-99,1162,-1487,-1859,-510,-3922,-5838,119,0,0
38201000,1442,-1870,12,150,552,2358,10347,-144,-4327,-5611,119,0,0
38249000,1619,-1863,267,195,988,2541,-2713,-22,-4651,-5562,240,39,-39
38301000,1696,-2227,252,-139,1390,-998,460,-266,-5088,-6803,240,0,-39
38349000,1572,-1965,278,45,1410,-3501,17916,-205,-4801,-6154,240,0,0
38401000,1479,-1614,183,117,541,-937,10103,-388,-4558,-4842,240,-39,0
38449000,1427,-1769,333,134,748,-83,1986,-1608,-4321,-5183,119,0,0
38501000,1326,-1851,239,-68,1672,-2097,11873,39,-3738,-5555,119,79,0
38549000,1252,-1674,197,-36,902,-1303,13826,1198,-2590,-4865,240,399,79
38601000,1239,-1818,187,-51,1294,-754,1802,466,-1077,-3774,359,880,559
38649000,1219,-2161,-40,65,2092,-998,4000,893,-1052,-4236,359,880,720
38701000,1162,-2149,56,6,1573,-2768,10530,2785,112,-3689,359,1199,920
38749000,1092,-2408,214,12,1564,-754,-3507,1747,1500,-3648,240,1600,1119
38801000,1102,-3092,61,-66,1318,2968,-7169,1320,2812,-4476,240,2040,1600
38849000,1354,-3253,151,86,1628,12306,4366,832,2983,-3106,359,2279,2239
38901000,1820,-3146,183,18,1871,12428,-2164,527,1499,-200,359,2320,3080
38949000,1999,-3507,-47,-63,1621,6935,-7657,161,1016,1100,480,2320,3800
39001000,2108,-3655,-8,80,1536,11330,-394,1503,635,1874,480,2320,4279
39049000,2265,-3621,-233,114,-34,7973,-2835,2724,223,2229,359,2320,4360
39101000,2146,-3742,111,-92,1065,-449,-9488,1320,519,3172,359,2320,4800
39149000,1858,-3945,30,47,1712,-1487,-5643,3029,1226,2724,480,2320,4839
39201000,1776,-3781,34,62,474,6752,460,2907,1750,3176,599,2360,4839
39249000,1904,-3675,68,-25,2201,5715,-13333,3029,1274,3583,599,2320,4839
39301000,1826,-4185,91,173,338,-4172,-21329,4250,1481,2324,599,2320,4960
39349000,1663,-4284,203,-94,1184,4006,-11624,3823,1984,4469,359,2320,5799
39401000,2070,-4145,133,52,1476,16579,-10404,3701,748,8563,359,2320,7000
39449000,2231,-4416,-4,24,1235,1442,-22489,5471,178,8244,599,2320,7079
39501000,1635,-5002,-121,91,1355,-12961,-20780,4982,2052,5871,599,2320,6960
39549000,970,-5133,-5,-165,352,-17600,-13699,5593,3737,5258,480,2320,6879
39601000,699,-5173,-126,115,205,-2219,-14798,4738,4862,5240,480,2320,6919
39649000,1157,-5190,-5,83,939,8339,-14554,3640,3655,4452,599,2279,6680
39701000,1681,-4991,-94,45,2031,4433,-11991,2724,1796,1586,599,2279,5520
39749000,1770,-4919,152,-76,892,-5454,-13822,2480,-76,-1454,599,1760,4440
39801000,1756,-4753,306,117,1451,893,-5948,1809,-830,-3581,480,1480,3559
39849000,2054,-4394,56,87,1169,6447,-4971,588,-1478,-2395,359,1519,3640
39901000,2014,-4419,145,174,224,-11008,-22855,1503,-282,-2458,480,1919,3599
39949000,1396,-4599,105,42,410,-24802,-15408,954,2135,-3272,599,2239,3520
40001000,741,-4105,132,114,976,-20713,277,405,4495,-1876,599,2239,3480
40049000,643,-3620,67,-100,1493,-2463,-4666,-83,5272,-455,599,2360,3520
40101000,1414,-3634,-52,118,1642,17311,-10892,344,2957,-342,599,2400,3520
40149000,2280,-3665,253,97,2109,15297,-7901,-937,1075,-580,480,2520,3480
40201000,2704,-3403,72,104,2201,5531,948,1137,285,-370,480,2799,3280
40249000,2691,-3078,-64,-65,1103,1259,643,1137,1256,-116,599,3120,3080
40301000,2544,-3122,244,-60,682,-754,-7901,2663,2685,-848,599,3440,2839
40349000,2447,-3091,69,120,238,2419,93,2053,2950,-980,599,3440,2799
40401000,2482,-2824,218,19,572,7057,1863,2663,4913,-554,599,4119,2639
40449000,2680,-2554,147,-21,251,11757,5342,1442,4797,-40,480,4240,2600
40501000,2943,-2432,164,-149,1052,11696,-2896,3518,4010,-218,480,4279,2360
40549000,2978,-2638,103,90,-80,7546,-1248,3640,4018,-1627,599,4319,2079
40601000,2881,-2677,23,192,882,3822,32,4067,4194,-2273,599,4279,1919
40649000,2680,-2855,-6,-60,1425,3273,-4361,3518,4560,-2561,599,4240,1960
40701000,2544,-3032,293,31,1225,5593,-1187,4372,5085,-3217,599,4240,1960
40749000,2586,-2833,293,128,190,10597,5098,3334,4910,-2665,480,4200,2000
40801000,2736,-2734,-33,174,1157,11208,338,3823,3309,-2803,480,3840,1800
40849000,2775,-2928,-75,-120,1437,8095,-3629,4189,288,-3533,599,2880,1719
40901000,2606,-2874,-44,1,1289,1808,5098,4311,-619,-4662,599,2400,1319
40949000,2298,-2669,84,54,1600,-3012,6319,4494,17,-4099,599,2360,1319
41001000,2091,-2617,-392,-28,41,405,2108,4494,925,-3893,480,2400,1319
41049000,2009,-2627,184,-29,1463,405,3328,2846,1105,-3898,599,2400,1319
41101000,1990,-2428,-2,-98,1494,3639,8394,3395,868,-3445,599,2279,1280
41149000,2092,-2272,-80,-28,1204,3761,5098,2358,711,-2848,599,2320,1319
41201000,2153,-2347,182,22,1230,3212,2901,2175,380,-3203,599,2279,1280
41249000,2000,-2398,58,-82,1168,-2463,5281,1503,559,-3336,480,2239,1280
41301000,1750,-2298,89,-109,764,-5637,8516,1686,1589,-2935,480,2279,1319
41349000,1479,-2413,-95,-36,560,-6125,2352,466,2142,-3164,599,2239,1319
41401000,1248,-2664,182,-11,2055,-3745,3878,710,2974,-3914,599,2239,1359
41449000,1025,-2532,117,-44,1945,-3562,15963,1442,3061,-3307,599,2079,1480
41501000,827,-2056,65,124,1537,-3806,13033,1503,3278,-1250,599,1919,1640
41549000,693,-2045,138,182,1986,-4294,32,-83,2301,-382,480,1480,1879
41601000,595,-2159,173,63,952,-4538,10286,-266,2534,-479,480,1440,2000
41649000,613,-1662,-17,34,704,-1609,17672,344,2539,1188,599,1440,2160
41701000,811,-1380,161,70,1024,-266,3206,-1242,1885,2819,599,1440,2320
41749000,871,-1780,106,259,267,-6186,-2774,-1914,1674,2106,599,1440,2400
41801000,662,-1859,186,144,1651,-13449,14437,-1059,2332,1620,480,1440,2400
41849000,500,-1664,-121,-20,785,-8200,7906,-876,2929,2190,359,1480,2400
41901000,662,-2245,-121,-7,1117,-2768,-3324,-1547,2452,464,359,1480,2400
41949000,793,-2489,102,68,1090,-7468,8760,-2219,2059,-307,480,1480,2400
42001000,727,-2286,-9,96,1153,-7895,9859,-1853,2257,219,480,1480,2360
42049000,872,-2406,282,72,891,-205,-3446,-1853,1949,33,480,1480,2360
42101000,1204,-2592,123,-85,964,-1181,7235,-1975,826,-698,480,1480,2360
42149000,1121,-2199,-24,-72,713,-8933,16390,-876,843,80,359,1440,2320
42201000,940,-1998,-155,-84,22,-5942,3145,-449,1619,1084,359,1480,2360
42249000,1009,-2409,-267,-81,897,-1609,826,-510,1471,-22,480,1480,2360
42301000,1176,-2280,251,196,1828,-1426,11934,-510,1150,718,480,1559,2520
42349000,1379,-2050,-188,-43,388,-266,5709,466,1705,1741,359,1919,2639
42401000,1542,-2324,30,218,900,-1975,-5338,-83,1611,1185,359,2079,2720
42449000,1677,-2522,191,4,1269,343,4000,-144,1804,464,480,2239,2679
42501000,1885,-2323,267,-110,926,-83,7418,161,1424,2388,480,2360,3120
42549000,2005,-2607,177,-26,1209,527,-5643,-693,1213,2557,480,2400,3359
42601000,2195,-3363,-278,30,339,1869,-6741,-754,493,1548,480,2360,3880
42649000,2378,-3595,-91,-133,896,-754,4366,-1364,147,1352,359,2400,4040
42701000,2452,-3594,73,-1,493,-1120,704,-1059,323,2295,359,2560,4360
42749000,2502,-3862,-52,75,-135,160,-5399,-2097,685,1668,480,2720,4360
42801000,2538,-4001,105,-17,417,1320,2352,-2341,423,1314,480,2679,4440
42849000,2552,-3921,24,38,904,405,-150,-1486,374,1911,480,2679,4560
42901000,2489,-4276,297,85,1229,-1609,-8389,-1731,571,1451,480,2679,4760
42949000,2339,-4533,85,177,469,-2402,-1187,-327,1461,1197,359,2839,4920
43001000,2298,-4345,-34,0,785,3761,1802,-205,2103,2204,359,2999,5079
43049000,2449,-4345,-21,76,815,7729,-6558,-327,1721,2036,480,2999,5000
43101000,2535,-4496,-74,39,-576,2968,-5399,832,1993,1509,480,3199,5000
43149000,2505,-4122,-128,-99,944,-449,6441,1686,2081,2443,480,3199,5039
43201000,2520,-3732,-180,210,853,4067,460,1564,3719,4283,480,3759,5160
43249000,2633,-3858,-47,87,424,7057,-6436,222,4286,3951,359,4040,5160
43301000,2767,-3733,-14,-142,1768,8034,-577,161,4417,4280,359,4240,5160
43349000,2748,-3635,121,-14,1737,6569,93,405,4311,4657,480,4200,5200
43401000,2700,-3768,103,80,272,7485,-7596,161,4619,4294,480,4240,5200
43449000,2810,-4032,196,-56,2132,9316,-6436,39,4214,4215,359,4200,5399
43501000,2797,-4099,286,251,57,7118,338,893,4328,4022,359,4240,5439
43549000,2845,-4089,-11,174,859,9621,-3507,1137,4253,3987,480,4240,5399
43601000,2906,-4351,318,65,1061,5470,-6986,1198,3880,3144,480,4200,5399
43649000,2838,-4452,52,148,800,4738,1619,1931,4152,2796,480,4240,5399
43701000,2829,-4318,319,130,2201,6630,-272,2602,4112,1925,480,4200,4960
43749000,2841,-4506,267,17,2067,4433,-8817,1931,1759,433,359,3440,4600
43801000,2544,-4573,139,76,873,-2097,1192,3518,-193,-161,359,2479,4519
43849000,2145,-4123,24,-32,659,-4538,6380,3456,751,899,480,2439,4519
43901000,2070,-3887,19,74,1,466,-7047,2602,987,2017,480,2400,4560
43949000,2160,-4153,26,199,822,1015,-12906,3029,615,1587,480,2360,4640
44001000,2151,-4148,87,1,1171,-1181,-2042,4799,-334,2193,480,2040,4879
44049000,2052,-3805,1,113,1047,-388,887,5715,-540,3031,359,1879,4879
44101000,2021,-3631,177,-21,375,-693,-8023,4677,-1503,4344,359,1519,5079
44149000,2080,-3916,100,144,1012,1076,-12418,4067,-1993,3730,480,1400,5120
44201000,2245,-4053,240,51,1492,1137,-5460,4372,-2537,3198,480,1400,5120
44249000,2328,-3900,-77,162,1682,-815,-5521,4250,-3011,3606,480,1319,5120
44301000,2303,-3763,66,-67,1890,-3562,-7169,3640,-2949,3949,359,1319,5079
44349000,2192,-3588,-15,4,1648,-3379,-5399,3212,-2784,3882,480,1280,4920
44401000,1996,-3429,33,-14,725,-4782,-5460,2541,-2028,4110,480,1319,4800
44449000,1653,-3430,-50,139,1545,-10031,-6131,2785,-1249,4039,480,1319,4760
44501000,1187,-3588,29,29,1121,-10581,-8267,3090,1118,3393,480,1559,4719
44549000,1042,-3840,-109,-10,712,-6308,-6192,2114,2487,2558,359,1879,4679
44601000,1037,-3969,227,2,880,-3928,-8267,3151,2647,1650,359,1919,4519
44649000,1189,-4213,242,123,4,-571,-6558,3273,2277,625,480,1919,4400
44701000,1262,-4071,-45,165,967,-5881,3450,4860,1973,505,480,1919,4240
44749000,1137,-3683,203,-39,2038,-5942,1802,4555,2286,1418,480,1919,4200
44801000,1209,-3697,195,62,944,2052,-7840,5288,2131,1508,599,1919,4200
44849000,1414,-3807,283,-12,664,588,-3140,4311,1370,1257,480,1840,4240
44901000,1552,-3606,259,184,1682,-2951,1680,5837,141,1781,480,1600,4200
44949000,1575,-3499,201,106,1053,-2036,-3873,5227,-123,2085,599,1519,4200
45001000,1713,-3500,286,90,1724,-1853,-1554,5776,-701,2099,599,1480,4200
45049000,1746,-3330,78,-101,1842,-2463,3450,5288,-915,2499,599,1440,4200
45101000,1762,-3189,275,185,1137,-1059,-638,5227,-1088,3032,599,1400,4200
45149000,1851,-3207,258,79,1887,-937,-3934,5165,-1193,2906,480,1440,4159
45201000,1818,-3227,350,109,2201,-3318,704,5104,-1136,2797,480,1440,4159
45249000,1750,-3232,28,42,1478,-2585,-1187,4555,-806,2796,720,1480,4159
45301000,1691,-3356,76,-32,2201,-2829,-3812,3640,-1115,2409,1080,1319,4159
45349000,1639,-3579,-70,167,304,1625,-2652,3762,-1032,1910,2279,1280,4200
45401000,1668,-3580,172,183,532,-144,704,1747,-1405,1857,3840,1199,4200
45449000,1717,-3576,244,114,1247,1869,-1309,710,-1657,1891,4559,1159,4200
45501000,1704,-3669,36,-64,765,-1120,-3324,-693,-1392,1471,4680,1240,4159
45549000,1767,-3693,-20,105,-397,2052,2657,-1669,-1591,1219,4680,1199,4119
45601000,2081,-3593,70,-37,640,8522,3939,-2524,-2644,619,4559,1199,3800
45649000,2576,-3677,197,15,1278,10536,-2835,-4111,-3938,-1,4320,1199,3640
45701000,2762,-3828,-22,1,164,2663,1070,-4111,-4808,-1044,4320,1159,3480
45749000,2688,-3666,-151,-93,510,-3867,6746,-3684,-4275,-1487,4320,1280,3199
45801000,2475,-3414,-12,119,445,-1181,1192,-5698,-3706,-1002,3719,1240,3080
45849000,2430,-3373,44,85,2169,1930,3633,-5820,-3575,-929,3719,1240,3080
45901000,2490,-3167,6,-77,1177,3517,6807,-6125,-3871,-862,3359,1199,2880
45949000,2576,-3229,-167,-146,1213,1991,-1859,-6674,-3980,-840,3119,1240,2920
46001000,2344,-3273,27,170,1498,-5149,7357,-7346,-3314,-1660,2760,1240,2720
46049000,2079,-2862,151,250,-29,-3989,13826,-4965,-2617,-1160,2879,1240,2560
46101000,2046,-2658,56,118,1165,-876,3878,-5271,-2418,-535,2640,1240,2479
46149000,1997,-2709,225,127,-252,-2402,4244,-5515,-1363,-1053,2279,1559,2360
46201000,1867,-2665,38,-115,1317,-5149,6868,-4660,998,-2237,1080,2200,1919
46249000,1687,-2684,106,-157,569,-4843,1375,-3562,1583,-2345,720,2239,1879
46301000,1638,-2916,41,53,1239,-815,6136,-5393,2765,-3590,599,2560,1719
46349000,1761,-2594,102,84,520,4799,14193,-3745,2509,-2856,599,2560,1719
46401000,2130,-2313,-116,158,1278,8461,9249,-3745,1409,-1660,599,2600,1760
46449000,2398,-2384,63,77,801,3700,3695,-3439,782,-1891,480,2639,1719
46501000,2492,-2465,-146,-24,-405,3029,6929,-3562,1402,-2836,480,2960,1519
46549000,2651,-2307,-90,-115,1435,7851,11263,-3928,2226,-2814,599,3359,1400
46601000,2773,-2254,190,71,250,4250,277,-3867,3678,-2923,599,4000,1280
46649000,2595,-2401,73,147,803,-5027,5892,-4111,4060,-3445,599,4000,1240
46701000,2124,-2040,-108,137,605,-11802,16573,-4477,5506,-2642,599,3959,1159
46749000,1681,-1826,202,162,1104,-5271,2108,-5698,6582,-1907,480,3919,1159
46801000,1717,-1995,147,49,431,3456,8699,-6308,6607,-2266,480,3919,1240
46849000,2079,-1828,-143,33,1497,7851,15718,-6186,4284,-1632,599,3440,1319
46901000,2465,-1752,170,137,2026,10658,399,-7407,-196,983,599,2400,2079
46949000,2480,-1904,185,218,1705,-4294,10897,-6857,-940,1026,480,2200,2239
47001000,1856,-1533,-50,-2,1524,-16684,19625,-5148,1030,2118,480,2200,2239
47049000,1329,-1475,211,189,1352,-13449,5281,-5881,2420,2575,599,2200,2279
47101000,1154,-2005,245,203,2137,-5393,3878,-5881,3016,1063,599,2160,2360
47149000,1227,-2149,-77,54,968,-3318,12545,-5759,2954,622,599,2200,2360
47201000,1311,-2303,94,99,843,-1731,1436,-5087,2666,409,599,2200,2439
47249000,1372,-2794,141,33,2201,-2036,-1004,-5637,2494,-510,480,2200,2560
47301000,1307,-2744,-202,-67,225,-4172,17855,-3073,2676,1125,480,2200,3120
47349000,1294,-2558,-114,-51,1873,-1120,3695,-1120,3011,2041,599,2279,3199
47401000,1396,-3374,132,162,1859,-327,-12601,-2768,3011,557,599,2400,3559
47449000,1483,-3988,54,-58,1229,-4355,4671,-2341,2743,-1000,599,2400,3640
47501000,1315,-3647,-162,48,41,-6614,11629,-266,3374,336,599,2439,3759
47549000,1235,-3699,11,59,-258,-1487,-9305,-2402,3516,936,480,2400,3919
47601000,1508,-4387,-6,217,-365,3395,-4605,-1547,3035,-1401,480,2520,3919
47649000,1864,-4400,30,108,1226,7668,9798,-693,2880,-1551,599,2760,3919
47701000,2287,-4325,-63,-97,248,11208,-3324,39,3097,-1095,599,3320,3959
47749000,2634,-4474,16,29,593,9377,-4056,-388,2295,-1497,480,3359,3959
47801000,2811,-4139,152,173,1280,5898,9615,1320,1526,301,480,3320,4240
47849000,2902,-3764,160,-4,1858,5837,2291,2480,1323,1743,599,3320,4360
47901000,3109,-4074,99,-44,1085,8339,-12174,954,871,1217,599,3399,4479
47949000,3137,-4374,-74,-4,1920,4494,-455,2114,621,593,599,3359,4560
48001000,2975,-4178,42,-137,1296,5409,2779,2968,1153,1384,599,3359,4640
48049000,2872,-4300,67,-143,605,5470,-9793,2053,1400,1444,480,3359,4719
48101000,2843,-4686,-10,-6,2200,5470,-9366,2358,1548,341,480,3359,4800
48149000,2805,-4636,48,-52,1900,2846,93,1992,1638,128,599,3359,4719
48201000,2618,-4433,8,69,1921,3700,-4605,2602,2105,978,599,3320,4760
48249000,2416,-4597,-120,-30,1946,4006,-10037,2846,2619,575,599,3320,4760
48301000,2202,-4555,49,150,2201,3273,-1309,3334,3231,852,599,3280,4839
48349000,2171,-4225,60,-69,787,7546,-1187,3701,3371,1657,480,3280,4839
48401000,2385,-4073,8,11,853,11757,-10892,2297,1002,2660,599,2720,4960
48449000,2754,-4120,192,38,2201,14321,-11014,2846,-277,2645,599,2600,5000
48501000,2928,-3971,93,185,709,7790,-3690,2846,-1585,3085,599,2400,5000
48549000,2761,-3823,1,16,1616,1137,-9610,3456,-1971,3566,480,2160,5000
48601000,2302,-4042,-21,-55,-147,-1670,-15225,2480,-1026,2873,480,1960,5000
48649000,2068,-4103,-115,147,1627,1442,-8878,3334,-853,2487,599,1800,4960
48701000,1929,-4044,-24,168,439,-449,-10282,2297,-1468,2746,959,1440,4960
48749000,1795,-4192,-221,87,497,-1059,-14859,2541,-1265,2409,1679,1400,4960
48801000,1607,-4286,47,-73,1030,-3257,-9793,1198,-862,1779,2279,1319,4879
48849000,1489,-4188,-174,138,608,-1303,-5338,954,-1005,1892,2279,1159,4839
48901000,1440,-4358,93,97,2201,-266,-15775,-266,-1322,725,2400,999,4600
48949000,1439,-4585,195,157,1424,-1181,-11929,588,-2414,-411,2519,639,4440
49001000,1280,-4467,-116,44,584,-6064,-6741,-83,-2882,37,2879,320,4479
49049000,1083,-4370,13,203,222,-7163,-9854,-205,-3215,409,3240,39,4519
49101000,930,-4547,268,47,1880,-6919,-13333,-510,-2672,158,3840,39,4600
49149000,863,-4495,140,48,1059,-5515,-7291,-1303,-2712,106,4080,-39,4560
49201000,928,-4469,193,50,530,-4599,-13577,-1792,-2784,151,4680,0,4519
49249000,1031,-4746,132,52,324,-3745,-14981,-876,-3038,-418,5039,0,4560
49301000,1152,-4602,-378,106,542,-4233,-1126,-1364,-3457,-126,5039,0,4560
49349000,1129,-4326,-170,-30,1003,-9970,-9000,-2219,-3449,403,5039,0,4479
49401000,936,-4389,-30,124,5,-13388,-12723,-3439,-2810,270,5160,0,4479
49449000,719,-4294,-131,41,1216,-11069,-4178,-3439,-2084,86,5520,39,4360
49501000,772,-4082,-74,158,1045,-1731,-7779,-4660,-2318,952,7200,0,4400
49549000,1093,-4193,135,-39,1824,771,-10343,-6735,-3248,949,7680,-39,4479
49601000,1251,-4232,269,192,1174,-4416,-4056,-7285,-3754,622,7920,0,4440
49649000,1234,-4227,-55,130,527,-6369,-6131,-6796,-3695,371,7799,0,4360
49701000,1219,-4169,220,60,1512,-7224,-2774,-6918,-3658,-29,7440,0,4159
49749000,1118,-4041,-110,-75,1356,-4905,-638,-6980,-3391,-180,7440,0,4000
49801000,1142,-3868,-108,-76,923,-2768,-577,-6980,-3427,-804,7440,0,3599
49849000,1226,-3781,21,113,-370,-1609,1253,-6980,-3728,-1930,6719,-39,3159
49901000,1366,-3434,205,-76,942,-3073,6197,-6003,-4100,-2862,599,0,2479
49949000,1387,-3095,126,81,462,-4660,4122,-1853,-4159,-2605,599,0,2279
50001000,1353,-2927,153,180,-55,-6186,3206,-1792,-3939,-3142,599,39,1879
50049000,1233,-2720,-32,221,968,-8567,10286,-1731,-3768,-2815,599,0,1840
50101000,1205,-2320,65,-109,1839,-3806,7906,-876,-3617,-1441,599,0,1840
50149000,1278,-2278,12,43,720,-998,5648,-998,-3919,-2034,599,-39,1600
50201000,1370,-2102,-41,149,2037,-2707,11202,-510,-4230,-1508,3359,-39,1600
50249000,1313,-1961,-130,79,1322,-6247,9493,-1120,-3966,-1118,5160,0,1600
50301000,1193,-2009,274,118,116,-7712,5892,-4111,-3579,-1468,5279,0,1519
50349000,1154,-2022,271,230,1359,-4843,9615,-2951,-3487,-1547,5279,0,1519
50401000,1190,-1850,-72,104,1047,-4905,11080,-2707,-3572,-1590,5039,0,1319
50449000,1188,-1770,74,25,741,-5881,7601,-3317,-3584,-1687,5160,0,1199
50501000,1111,-1868,53,77,-34,-7163,7357,-3195,-3335,-2245,4920,0,1119
50549000,989,-1825,-109,9,576,-5637,11690,-2585,-3040,-2281,4920,0,1080
50601000,1028,-1738,163,-131,1631,-22,7662,-2707,-3086,-1975,4799,0,1080
50649000,1218,-1885,43,-110,-220,-449,5648,-3684,-3458,-2445,3959,39,1040
50701000,1337,-1854,21,55,2201,-1914,12178,-2768,-3291,-2323,3119,239,1080
50749000,1357,-1813,-51,-2,2201,-2402,6258,-2280,-1663,-2245,3240,799,1040
50801000,1412,-1998,224,-123,1876,-632,4854,-3562,201,-2635,3119,1480,1119
50849000,1564,-1872,14,21,93,4128,14498,-3623,1535,-2435,2400,2040,1119
50901000,1853,-1619,297,190,1225,6264,8577,-2951,1279,-538,1439,2279,1440
50949000,2043,-1858,163,138,1892,7485,826,-2036,2119,-945,1199,2720,1480
51001000,2175,-2016,-43,98,2101,5837,11385,-1486,2472,-409,1439,2999,1879
51049000,2268,-1836,-54,111,1956,6264,11934,-1608,3233,901,1439,3320,2160
51101000,2447,-2063,218,-43,1453,6874,1925,-2524,2618,1490,1560,3320,2560
51149000,2625,-2179,231,-93,2177,8278,10408,-1608,2175,1321,1439,3320,2639
51201000,2716,-2032,132,-59,1200,7118,6319,-815,1929,2782,1439,3359,2960
51249000,2809,-2282,172,-3,2090,8583,-3018,-1364,1726,2432,1560,3359,3039
51301000,2852,-2493,203,127,1606,6020,4366,-1425,1762,2960,1560,3440,3480
51349000,2860,-2297,113,220,991,8949,8944,649,1776,3696,1560,3440,3559
51401000,3051,-2515,84,193,2102,12489,-6375,100,1045,3134,1560,3399,3559
51449000,3233,-2966,-140,31,417,9743,-7169,405,457,2175,1439,3359,3640
51501000,3197,-3060,276,266,400,7424,3939,-83,486,1739,1320,3359,3640
51549000,3106,-2813,-129,58,1371,5470,6136,344,687,2012,1560,3359,3520
51601000,3042,-3005,-70,-16,663,8522,-7596,-1425,831,1542,1439,3320,3520
51649000,3019,-3430,90,-163,1441,8644,-3446,-2219,869,555,1439,3320,3559
51701000,3006,-3387,-1,109,1411,11147,6746,-2890,941,517,1320,3320,3559
51749000,3117,-3371,-15,21,2201,14260,-2835,-3134,833,546,1439,3359,3520
51801000,3388,-3680,-95,-65,359,15114,-5826,-3806,-805,-242,1439,3120,3599
51849000,3423,-3523,1,-62,1701,6325,8516,-3134,-1374,145,1439,2999,3640
51901000,3070,-3171,330,84,2071,2724,3633,-1425,-1650,1524,1439,2520,3680
51949000,2755,-3522,187,20,1936,4494,-8512,-2402,-1183,1087,1320,2400,3800
52001000,2480,-3773,75,-29,2078,2907,5037,-2524,-481,79,1320,2320,3800
52049000,2258,-3431,-1,130,1369,1625,11812,-205,-635,1355,1439,2079,3959
52101000,2060,-3255,61,144,77,1930,-455,-2219,-302,2714,1439,1960,4159
52149000,1927,-3470,-50,15,480,893,-2103,-2890,32,2391,1439,1960,4240
52201000,1774,-3316,94,-37,514,-1670,8333,-1181,77,2771,1320,1800,4240
52249000,1680,-3122,-93,-58,688,-449,3267,-1547,205,3226,1439,1760,4200
52301000,1643,-3361,40,44,-1,-1609,-6314,-3195,110,2395,1439,1679,4159
52349000,1591,-3482,68,28,468,-2585,2291,-2829,-636,2098,1439,1400,4200
52401000,1574,-3251,-251,43,1171,832,4427,-1731,-3163,3805,1439,520,4519
52449000,1599,-3456,-155,-63,2014,-327,-9183,-3073,-4671,4532,1320,39,4879
52501000,1543,-3992,-84,-71,1387,-3806,-5765,-2707,-4631,3501,1320,0,5160
52549000,1414,-3917,-192,-54,569,-7529,7540,-2036,-4099,3296,1439,79,5079
52601000,1368,-3770,31,240,-219,-4050,-3568,-2219,-3865,4048,1439,79,5120
52649000,1560,-4159,215,116,2188,-815,-12418,-2219,-4444,3064,1439,39,5120
52701000,1634,-4283,193,10,2201,-6308,1436,-937,-4782,2509,1320,39,5120
52749000,1435,-3841,51,-70,1444,-9665,5587,-144,-4310,3510,1439,39,5079
52801000,1235,-3809,106,152,-302,-8445,-11258,-449,-3705,3572,1439,0,5000
52849000,1088,-4023,-59,29,-574,-8384,-5277,-510,-3210,2935,1439,39,5000
52901000,975,-3710,36,-72,669,-9360,2901,344,-2807,3867,1439,39,5000
52949000,994,-3628,264,-146,280,-4111,-9549,-632,-2832,4242,1320,39,5000
53001000,1086,-4007,-151,6,1677,-4843,-9183,-693,-3259,2737,1320,0,4920
53049000,931,-3961,-262,-113,564,-10886,1558,-266,-2872,1817,1439,0,4600
53101000,751,-3896,72,-128,1124,-7163,-5704,-754,-2133,-2209,1439,39,3159
53149000,957,-4452,102,74,92,1259,-12784,-1364,-2695,-10890,1320,0,720
53201000,1233,-4320,252,-72,1960,-7102,17244,-876,-3699,-12962,1320,0,0
53249000,1060,-3389,-63,130,1657,-10276,19381,1503,-3304,-10720,1320,0,-39
53301000,919,-3137,43,164,618,-5454,-4544,-632,-2757,-9532,1439,0,-39
53349000,976,-3397,207,79,2201,-1120,1680,-144,-2891,-9357,1320,0,280
53401000,1016,-2825,68,37,1717,-2585,19991,1747,-3048,-2236,1320,0,2079
53449000,1029,-2517,-27,149,1521,-2768,-2225,1015,-3222,2366,1320,-39,3280
53501000,929,-3044,94,117,1256,-7590,-14005,649,-2667,4305,1320,39,4479
53549000,692,-3280,140,-29,1274,-9726,399,588,-1983,4775,1439,79,4879
53601000,482,-3256,-56,53,1381,-5515,-6314,2297,-1208,6549,1439,79,5439
53649000,462,-3953,-178,26,1897,-1548,-22733,1564,-1114,5658,1439,79,5680
53701000,549,-4660,50,-51,538,-2646,-11441,1992,-1407,3059,1439,79,5680
53749000,564,-4522,68,49,927,-3684,2474,1625,-1433,2857,1320,79,5520
53801000,707,-4409,27,-147,2201,1747,-10098,1076,-1762,2852,1439,120,5360
53849000,901,-4742,-193,35,535,-388,-10526,466,-1317,1528,1439,439,5200
53901000,922,-4635,-271,90,-43,-5576,2901,1564,-366,1573,1439,799,5160
53949000,761,-4289,-56,-38,555,-7834,-4422,1625,647,2547,1320,999,5160
54001000,775,-4507,13,170,725,649,-13699,954,553,2078,1560,959,5200
54049000,1032,-4755,-28,13,1437,3578,-4971,1015,152,1350,2160,1040,5200
54101000,1235,-4519,69,-44,975,1259,-333,1381,-707,2040,3240,999,5200
54149000,1414,-4424,15,156,119,3273,-7352,1442,-1239,2327,3600,959,5200
54201000,1717,-4429,274,22,1699,3334,-3140,527,-2273,2311,4320,959,5200
54249000,1923,-4214,68,57,2201,2663,5587,2358,-2837,2688,4200,959,5160
54301000,1877,-4080,-248,-96,851,954,-4422,2907,-2871,3239,4320,920,5160
54349000,1847,-4311,24,-46,184,-1426,-10892,1564,-2211,2688,4320,1119,5160
54401000,1741,-4351,-204,-130,521,-2524,-4971,1625,294,1944,4320,1840,5000
54449000,1661,-4279,95,78,1190,466,-8573,1686,2186,2214,4440,2400,5000
54501000,1840,-4451,139,-122,1344,8156,-10648,466,1797,1644,4920,2439,5000
54549000,2141,-4412,87,140,1258,8888,-3262,-937,1156,1654,5160,2479,5000
54601000,2426,-4260,5,-45,484,8217,-9305,-1364,520,1738,5399,2600,4839
54649000,2428,-4429,465,231,2201,1564,-9183,-1975,697,735,5399,2679,4640
54701000,2264,-4590,134,10,1086,893,-6803,-2707,1246,-212,5520,2679,4519
54749000,2181,-4553,199,143,291,5104,-4178,-3317,1517,-515,5279,2679,4400
54801000,2260,-4512,116,-31,449,6996,-4849,-3928,1378,-577,5279,2720,4319
54849000,2386,-4469,247,172,1494,8156,-2835,-3501,1036,-592,5399,2720,4279
54901000,2480,-4288,50,-52,1897,6691,-89,-3439,717,-985,5399,2720,3959
54949000,2475,-4081,3,-24,1027,4738,-760,-2707,701,-1013,5279,2720,3759
55001000,2501,-4036,92,15,1634,3273,-5826,-2097,654,-2029,5160,2720,3359
55049000,2521,-3874,249,126,31,5287,1253,-2829,631,-2463,5160,2720,3120
55101000,2645,-3676,-49,135,761,7973,-943,-1975,222,-1908,4440,2720,3039
55149000,2709,-3659,154,-65,1892,5104,1009,-1914,-313,-1800,4200,2600,3080
55201000,2506,-3223,105,168,2201,466,12239,39,-199,-429,3719,2439,3080
55249000,2288,-2892,-166,-80,701,1381,2657,-388,266,381,3480,2400,3039
55301000,2139,-2984,96,-46,-375,1442,-150,-1486,422,166,3000,2279,3039
55349000,2218,-2880,86,117,-30,6874,10591,-1059,-55,428,3119,2160,3080
55401000,2522,-2535,52,-23,877,11330,5526,-632,-1328,1632,2760,2079,3080
55449000,2663,-2515,-115,-66,729,4311,1619,-876,-2207,1670,2519,1919,3080
55501000,2389,-2445,-93,46,-386,-4721,8638,1015,-2127,1903,2279,1679,3080
55549000,2154,-2357,11,53,1314,-632,4427,1442,-1485,2174,2400,1679,3080
55601000,2353,-2495,-136,-97,863,11574,704,-876,-2019,1752,2400,1679,3080
55649000,2611,-2646,0,-1,-446,8644,1619,-876,-2860,1524,2400,1640,3120
55701000,2672,-2726,44,106,823,4860,4610,-1303,-2976,1060,2400,1679,3080
55749000,2607,-2752,291,110,901,2114,2840,-998,-3172,1184,2400,1559,3120
55801000,2473,-3025,53,66,187,405,-699,-1486,-2979,643,2519,1480,3239
55849000,2317,-3086,170,93,908,-1731,9005,-1731,-3093,736,2519,1319,3359
55901000,2166,-2776,184,150,1644,-83,12484,-83,-4218,1869,2400,759,3399
55949000,2124,-2701,210,90,2201,893,4366,-1364,-6280,2153,2400,39,3399
56001000,1928,-2874,91,-39,460,-4660,32,-693,-5664,2057,2400,39,3559
56049000,1655,-2885,175,148,997,-998,7662,-876,-4955,2468,2400,39,3719
56101000,1666,-2813,156,126,1869,6447,3328,-1425,-4878,2840,2400,39,3759
56149000,1641,-2908,174,89,1656,405,-211,-1547,-4974,2741,2400,0,3800
56201000,1360,-3069,143,177,983,-4233,4305,-327,-4081,2311,2400,0,3840
56249000,1086,-2939,288,229,1404,-3623,6136,405,-3381,2635,2519,0,3840
56301000,1015,-3012,-65,207,1828,99,-89,-1242,-3045,3202,2400,0,4080
56349000,1042,-3197,112,-44,2201,-815,826,-1425,-3119,3176,2519,0,4240
56401000,935,-3205,205,193,1278,-4966,3328,-1181,-2807,3463,2640,0,4360
56449000,826,-3184,122,134,1723,-3623,1070,-937,-2515,3531,2640,0,4360
56501000,802,-3190,135,181,198,-3562,2657,-1792,-2406,3868,2640,0,4479
56549000,696,-3204,3,-1,1328,-6003,1131,-1242,-2151,4077,2640,0,4560
56601000,643,-3403,220,156,1480,-4843,-3507,-1914,-1810,3589,2640,39,4600
56649000,694,-3622,120,189,1251,-3379,-1554,-2158,-2041,3615,3000,0,4800
56701000,763,-3511,201,123,1997,-5393,4732,-1303,-2291,4104,2879,0,4879
56749000,743,-3424,-56,60,1134,-8811,-5521,-1547,-2391,5001,2760,-39,5079
56801000,530,-3782,241,104,584,-10581,-8450,-1608,-2071,4252,2760,-160,5200
56849000,362,-3945,109,58,220,-8872,2108,-1059,-1752,4005,2760,-199,5280
56901000,254,-3838,-5,19,2035,-8628,-150,832,-2804,5044,2760,-679,5520
56949000,221,-3948,77,-57,1553,-9421,-8267,-510,-3811,4947,2760,-1039,5560
57001000,164,-4088,-27,24,2077,-13694,-2713,100,-3732,4295,2879,-1080,5520
57049000,22,-3977,-6,3,1457,-12290,1558,893,-3350,4563,2760,-1080,5520
57101000,97,-3956,22,-123,516,-6552,-4300,1137,-3532,4571,2760,-1080,5480
57149000,194,-4069,68,-36,574,-7407,-4605,1198,-3833,4414,2760,-1080,5520
57201000,167,-4058,34,153,-1285,-9177,-1492,1931,-3623,4385,2760,-1039,5520
57249000,169,-4023,423,22,1996,-10276,-4910,1809,-3398,4456,2879,-959,5480
57301000,190,-4251,-183,131,-175,-4905,-7962,1320,-1052,3324,2879,-160,5360
57349000,435,-4537,-63,-55,1130,-754,-7169,1992,-1540,2741,2760,-119,5399
57401000,712,-4577,117,-27,-25,-510,-1981,1747,-2377,2466,2879,-80,5399
57449000,1003,-4517,359,131,766,-632,-6070,1809,-3002,2702,2640,-39,5399
57501000,1168,-4622,-9,19,-172,-2951,-7413,1259,-3626,2331,2760,-39,5399
57549000,1122,-4482,352,127,1889,-5454,-1065,1564,-3456,2684,2879,0,5399
57601000,884,-4514,206,9,2201,-5210,-3751,1015,-2773,2656,2640,-39,5399
57649000,692,-4626,113,-26,438,-3379,-3873,39,-2287,2229,2640,-39,5360
57701000,692,-4528,81,46,1184,-2768,704,710,-2318,2375,2640,-80,5320
57749000,711,-4282,293,-57,1135,-1975,1314,344,-2122,2983,2760,0,5320
57801000,772,-4235,107,6,1039,160,-4117,-266,-2316,2174,2640,0,4960
57849000,868,-4253,260,233,1723,893,1375,161,-2556,1816,2519,0,4879
57901000,886,-3932,271,-69,2201,-1609,7051,1381,-2658,2723,2519,0,4839
57949000,926,-3838,33,7,1081,2846,-2286,-388,-2714,2684,2519,0,4719
58001000,1142,-3988,25,185,676,3334,-516,-449,-3427,1834,2640,0,4600
58049000,1326,-3809,-99,-1,841,3456,7784,161,-3879,1932,2519,0,4519
58101000,1461,-3470,99,-86,1352,4006,3450,344,-4385,3029,2279,0,4479
58149000,1540,-3533,-63,-75,1426,4860,-3385,344,-4729,2824,2519,-39,4440
58201000,1414,-3524,-121,-9,1953,-266,4610,1015,-4242,2747,2400,0,4440
58249000,1288,-3355,-9,1,-980,3273,2962,1503,-3720,3122,2279,39,4400
58301000,1537,-3346,3,-104,864,9133,-3812,-876,-4252,3520,2160,120,4519
58349000,1629,-3413,209,199,1858,-876,2169,405,-3475,3321,2279,480,4519
58401000,1418,-3293,266,177,1271,-2402,5465,100,-775,3560,2279,1159,4479
58449000,1294,-3340,173,20,2201,3517,3511,-1608,-11,3499,2279,1280,4479
58501000,1433,-3685,172,13,1002,4799,-3812,-2524,-581,2264,2400,1240,4440
58549000,1388,-3712,239,214,1381,-1731,7112,-998,-409,2036,2279,1280,4440
58601000,1226,-3272,145,247,126,160,12789,39,161,3621,2279,1280,4479
58649000,1337,-3066,-63,124,1479,7851,5587,-1059,-29,4192,2279,1280,4479
58701000,1587,-3275,152,85,579,9560,-2347,-1120,-921,3734,2279,1280,4519
58749000,1851,-3453,80,-50,846,10353,-821,-1792,-1442,3007,2279,1319,4440
58801000,2002,-3529,130,-92,623,9743,-455,-1425,-2046,3331,2160,1319,4640
58849000,2156,-3757,78,18,-308,9804,-4300,-876,-1752,3099,2160,1559,4719
58901000,2071,-4038,-113,-188,1035,5104,-699,405,-453,2403,2039,1919,4839
58949000,1852,-3923,147,-138,777,649,7845,893,-10,2743,2160,1879,4879
59001000,1761,-3819,132,-41,1341,4860,-943,710,356,3660,2160,1879,5039
59049000,1852,-4157,165,-60,2057,7118,-8450,-449,203,2822,2160,1919,5039
59101000,1864,-4381,64,119,901,5409,3389,344,167,1855,2160,1919,5000
59149000,1717,-4260,-26,-58,2099,6386,521,832,456,2202,2039,1879,5000
59201000,1698,-4511,-206,-108,1042,8827,-10343,-632,663,1466,2039,1919,5000
59249000,1801,-4725,-24,-122,572,8644,-760,-1547,258,666,2160,1879,4960
59301000,1780,-4115,-32,0,1155,6020,15779,1870,298,2533,2160,1879,4960
59349000,1693,-3834,138,59,1203,1442,-577,893,257,3166,2039,1800,4879
59401000,1634,-4370,280,95,985,4128,-8878,-815,377,1649,2039,1760,4920
10164,-327,128,1038,2279,1519,4839,,,,,,,
59501000,1211,-3977,143,14,1876,3639,10775,405,325,1506,2160,1319,4479
59549000,1437,-4094,23,102,1279,14687,-3201,-937,-641,1193,2039,1159,4440
59601000,1763,-4277,-136,124,1279,9682,7845,-1425,-2409,368,2039,959,4400
59649000,1638,-3800,-18,82,1014,-2402,12911,1503,-2534,1568,2039,840,4400
59701000,1284,-3864,72,-49,963,-2524,-9244,222,-1332,1486,2160,840,4360
59749000,1065,-4173,313,-55,1008,-3684,1497,-632,-763,712,1920,840,4400
59801000,1014,-3938,264,-70,2201,405,9554,466,-522,1383,2039,840,4400
59849000,1010,-3954,65,20,639,2480,-3507,161,-1489,1428,2160,520,4400
59901000,979,-4189,198,112,1011,-1853,-394,-205,-2817,631,2039,39,4400
59949000,794,-4053,-64,-19,2201,-3745,5709,527,-2448,691,1920,0,4319
60001000,647,-3934,-52,-96,975,-388,2108,283,-1943,797,1679,0,4200
60049000,673,-3954,59,-205,1124,527,-272,-571,-2002,752,1799,0,4200
60101000,624,-3765,27,63,577,-3440,3939,527,-1874,703,1799,0,4000
60149000,448,-3526,-228,-21,555,-7773,2840,1931,-1442,1217,1920,0,3959
60201000,407,-3479,-171,-94,623,-754,-1004,1137,-1341,1560,1920,-39,4000
60249000,604,-3539,172,-51,1243,99,-394,832,-1716,1543,1799,0,4040
60301000,755,-3635,-151,54,-234,-815,-1431,1564,-2267,1212,1799,0,4040
60349000,723,-3829,-42,-36,-211,-4721,-2774,1625,-2208,875,1920,0,4080
60401000,686,-3952,5,-56,18,-4355,-150,1015,-2178,262,1799,-39,4040
60449000,730,-3980,222,100,1011,-5088,1253,771,-2075,69,1679,39,4000
60501000,885,-4205,-52,-66,480,-3562,-6986,954,-2656,-496,1679,0,4040
60549000,930,-4380,368,-75,1845,-8078,2291,-22,-2830,-1001,1799,0,4040
60601000,782,-4270,65,156,811,-9360,1802,1076,-2468,-691,1920,-39,4040
60649000,742,-4410,17,176,1761,-5027,-6680,161,-2105,-1160,1920,39,4000
60701000,808,-4469,18,139,1093,-6064,2474,832,-2304,-2007,2039,39,3800
60749000,724,-4181,8,-56,1508,-5149,765,649,-2189,-2624,2039,0,3359
60801000,575,-3978,-25,-151,2201,-3989,-2225,100,-1727,-3416,2039,0,2839
60849000,526,-3846,82,90,1243,-1487,3389,161,-1643,-4063,2039,-39,2520
60901000,419,-3698,55,-141,675,-7529,3206,1015,-1257,-4374,2160,0,2239
60949000,375,-3786,209,6,1602,-7224,1131,-327,-1145,-5207,1799,0,2040
61001000,402,-3671,130,-61,2103,-8200,9310,466,-1208,-5375,1920,0,1879
61049000,606,-3527,268,20,1946,3090,2352,1503,-1603,-5005,2160,0,1840
61101000,820,-3765,262,-12,1788,-1914,-2713,832,-2461,-6136,1920,0,1719
61149000,602,-3566,67,24,1891,-12168,11263,954,-1974,-5897,1920,0,1679
61201000,369,-3269,273,13,234,-2158,-5582,527,-989,-5008,1560,39,1600
61249000,682,-3861,-198,-186,1456,1625,-10587,222,-2039,-6631,720,-39,1559
61301000,588,-3468,164,-179,262,-10825,19991,2663,-1764,-6326,599,0,1359
61349000,277,-2848,-169,40,1898,-2829,-2042,2907,-939,-4717,720,-39,1280
61401000,484,-3593,353,233,759,5043,-15958,1320,-1332,-6821,599,39,1319
61449000,484,-3507,-156,-117,694,-7590,22799,2236,-1624,-6808,599,0,1359
61501000,68,-2615,116,-12,87,-8017,7906,3762,-206,-3646,599,0,1400
61549000,102,-3348,21,-103,2201,3029,-26883,-205,-178,-5126,720,0,1440
61601000,165,-3788,547,164,1020,-3318,13704,2175,-375,-7165,720,39,1400
61649000,-2,-2848,-96,64,1957,-4416,16146,5593,4293,-3652,2640,1440,1760
61701000,147,-3020,60,100,1834,6569,-15408,-571,12276,-3901,5879,4240,1719
61749000,637,-3919,189,114,560,9560,-15286,-4233,11245,-6246,6239,4319,1719
61801000,1180,-4090,196,-29,863,9926,6746,-4660,9418,-7111,6600,4319,1719
61849000,1475,-3655,-141,13,1034,6020,6685,-4111,8651,-5989,6600,4319,1719
61901000,1681,-3789,-6,42,2201,5837,-6497,-5393,9115,-6449,6600,4719,1640
61949000,1784,-4112,-1,-55,1689,4250,-5887,-4782,9800,-7193,6719,5039,1679
62001000,1674,-3929,143,85,1342,-510,8516,-4111,11775,-6869,6719,5599,1640
62049000,1456,-3708,-94,92,2001,-937,1802,-3684,15706,-7212,6840,6719,1319
62101000,1455,-3868,19,119,105,4250,-5094,-6186,16754,-8725,7680,7040,959
62149000,1820,-3815,258,150,1905,11086,3817,-7346,16763,-9265,8040,7320,759
62201000,2421,-3333,122,-66,95,16579,7479,-7651,15174,-7961,8520,7479,680
62249000,3074,-3181,114,38,2201,19875,-2408,-7773,14493,-7643,8999,7799,599
62301000,3592,-3468,-72,-66,60,17494,-4300,-7956,13702,-8725,11400,8160,559
62349000,3766,-3352,-72,142,-388,12306,9798,-9055,14419,-8661,11400,8559,520
62401000,3750,-3058,29,117,1418,10292,8455,-9177,14429,-8336,11280,8559,280
62449000,3741,-3065,-152,148,0,13466,-1248,-9787,14455,-8781,9360,8559,120
62501000,3770,-3236,132,-23,1405,12917,1680,-9421,14248,-9708,8400,8520,0
62549000,3784,-3182,199,132,2126,14931,8821,-7346,14587,-9566,8280,8640,0
62601000,3886,-3131,-41,49,-42,17739,3511,-7956,13899,-9514,8280,8520,-39
62649000,3983,-3222,-81,-22,339,17433,704,-8566,13645,-9623,8280,8520,0
62701000,4003,-3246,-50,-26,-332,15175,3145,-9604,12710,-9739,8040,8239,0
62749000,3994,-3230,42,95,2136,13649,3084,-8566,12254,-9798,8040,8080,-39
62801000,3871,-3174,81,72,490,10231,887,-8994,9744,-9523,7680,7119,0
62849000,3753,-2995,-5,-112,471,10414,6563,-8444,7194,-9085,7559,6159,0
62901000,3749,-2819,32,133,524,13222,8333,-8505,2430,-8459,7680,4560,0
62949000,3781,-2997,-133,70,328,13039,-1492,-8261,1383,-8759,7559,4240,39
63001000,3608,-3289,311,114,2201,3700,-333,-8017,-4706,-8908,7680,2040,320
63049000,3158,-3215,114,-22,1907,-2890,7112,-7712,-9623,-9855,7440,39,-39
63101000,2516,-3088,-11,172,235,-7102,4427,-6857,-7550,-9264,7440,0,0
63149000,1931,-3203,41,0,1360,-10703,-3324,-6980,-6095,-9398,7559,0,39
63201000,1323,-3215,-191,73,1398,-11252,5648,-6980,-3971,-9645,7680,0,0
63249000,872,-2778,-26,-57,-575,-9543,6563,-7468,-2673,-8674,7559,39,-39
63301000,652,-2672,240,165,1536,-6247,216,-8017,-1837,-8137,7319,39,-39
63349000,703,-3042,236,-6,623,-5515,-2469,-8566,-2082,-9050,7440,0,-39
63401000,706,-3097,-174,-128,1069,-7102,5465,-8139,-2120,-9292,7559,0,0
63449000,619,-2959,90,0,1215,-5759,3817,-8078,-2020,-9009,7559,-39,-39
63501000,568,-3139,-69,12,1288,-4599,-211,-8444,-1705,-9539,7559,0,-39
63549000,612,-3461,231,85,71,-6003,3145,-8627,-1791,-10338,7319,0,-39
63601000,766,-3796,56,-1,-26,-8384,3450,-7956,-2298,-11509,7079,0,-39
63649000,991,-4069,62,134,1117,-8445,3939,-7285,-2994,-12032,5399,-39,0
63701000,1136,-4269,-109,-105,983,-9543,4366,-6003,-3410,-12809,3959,0,0
63749000,1071,-4108,48,169,-123,-11924,6502,-3928,-3232,-12510,3840,0,-39
63801000,815,-4108,-100,99,-146,-14792,-28,-3684,-2445,-12444,4559,0,-39
63849000,445,-4110,-160,62,-191,-16318,-455,-3623,-1511,-12333,5879,0,0
63901000,233,-3916,31,87,544,-15342,3695,-5271,-699,-11750,7079,0,0
63949000,350,-3712,-135,-57,262,-11557,-211,-5576,-931,-11366,7079,0,-39
64001000,765,-3496,-8,-42,844,-6675,-3812,-6064,-2295,-10609,6960,0,-39
64049000,1052,-3255,18,163,2091,-5698,1253,-6003,-3127,-10098,6840,0,-39
64101000,988,-2629,4,-10,1262,-8689,826,-6247,-2964,-7889,5279,0,0
64149000,821,-2077,4,140,1310,-9177,-5033,-3806,-2533,-6601,4680,0,-39
64201000,736,-1688,54,201,121,-7590,-6680,-4111,-2328,-5186,4799,-39,-39
64249000,767,-1463,-108,-80,890,-8261,-5643,-4416,-2282,-4637,4680,0,-39
64301000,851,-1468,214,97,1071,-4172,-12113,-4782,-2555,-4526,4680,0,-39
64349000,1016,-1861,135,12,1059,-5149,-13394,-3317,-2976,-5394,4799,0,0
64401000,1088,-1893,209,-58,1942,-12473,-3690,-2585,-3384,-5680,4920,-39,0
64449000,889,-1789,-29,48,485,-16562,-5155,-3501,-2830,-5537,5639,0,-39
64501000,550,-1803,90,0,1159,-19675,-9000,-3256,-1651,-5531,5639,0,-39
64549000,329,-1854,-105,83,-294,-16745,-5643,-3378,-1153,-5617,5760,-39,0
64601000,426,-1713,75,-9,2057,-7102,-2469,-4538,-1280,-5139,5399,0,0
64649000,750,-1785,-151,112,708,-3196,-7352,-3012,-1923,-5394,5039,39,-39
64701000,1084,-2034,89,-98,648,-5576,-5460,-3562,-3252,-6222,6960,0,-39
64749000,1172,-2018,148,124,1282,-7285,-1492,-4538,-3493,-6100,6960,0,0
64801000,1148,-2113,63,226,303,-8689,-6070,-5332,-3446,-6339,4920,0,0
64849000,1145,-2227,65,75,2201,-4721,-3385,-3012,-3421,-6793,2760,0,-39
64901000,1283,-2071,345,-104,1662,-571,-760,-1608,-3850,-6334,2039,0,-39
64949000,1490,-1994,-146,198,1364,1625,-4178,-1303,-4354,-6141,1920,0,-39
65001000,1589,-2081,99,65,144,-2951,-2286,-144,-4768,-6365,2160,0,-39
65049000,1585,-2005,-249,-1,873,-4416,-394,771,-4765,-6053,2760,0,0
65101000,1573,-1895,217,77,493,-5149,-4422,-205,-4720,-5805,4080,0,-39
65149000,1644,-1796,-69,70,1084,-388,-2896,-205,-4893,-5584,3959,0,-39
65201000,1777,-1495,13,33,921,-632,1497,-1364,-5331,-4606,4680,0,-39
65249000,1758,-1277,-139,-104,-343,-4355,-3201,-1425,-5447,-3909,5160,-39,0
65301000,1640,-1140,20,106,427,-4721,-5277,-1975,-4921,-3420,4920,0,0
65349000,1590,-1191,228,-60,1007,38,-5094,-2829,-4797,-3504,5039,0,0
65401000,1713,-1204,73,-119,722,4128,643,-2524,-5019,-3734,5039,39,-39
65449000,1681,-1287,242,77,1530,893,-4544,-3073,-5107,-3856,5039,0,-39
65501000,1700,-1539,-62,85,375,7485,-2713,-1853,-5101,-4739,5039,0,-39
65549000,1931,-1419,196,-24,1921,10719,1558,-3989,-5562,-4345,5039,39,0
65601000,2170,-1383,89,-55,1411,11513,277,-4172,2729,-4150,4920,3080,0
65649000,2441,-1258,-5,78,737,16823,5220,-2585,6901,-4011,4799,4679,-39
65701000,3019,-929,-395,106,-347,25673,4610,-2097,4980,-2789,4920,4679,0
65749000,3753,-747,-352,-152,480,27138,-4422,-4477,-2046,-2427,4920,2960,-39
65801000,4300,-212,-310,-237,191,20119,7112,-3317,-9780,-756,5039,1040,-39
65849000,4402,755,6,37,717,9926,6929,-2646,-10063,1878,4920,1040,0
65901000,4075,1215,110,55,1133,-632,-6803,-3378,-8865,3647,5039,1119,0
65949000,3529,1107,34,46,2126,-4355,-11441,-1731,-10799,3223,4799,39,-39
66001000,3196,617,-99,-172,1947,10597,-9305,-3317,-9588,1733,4920,0,-39
66049000,3005,103,-175,-103,1003,8217,-6864,-2036,-9236,1285,5039,-39,239
66101000,2725,-262,76,98,2162,12428,-4544,-510,-8057,1251,5039,39,680
66149000,2801,-755,-138,3,2052,15114,-13394,-1608,-6068,2174,5160,759,1400
66201000,2909,-1299,-191,39,603,19997,-6375,-1914,2072,4500,5039,3599,2799
66249000,3041,-1319,280,61,-408,19325,2840,-266,4310,5691,5039,4440,3239
66301000,3449,-1634,-106,44,572,23415,-11991,-1181,2852,5295,5039,4400,3399
66349000,3884,-2507,127,99,868,17189,-27799,1076,1641,4079,5160,4400,3680
66401000,3658,-3585,162,161,148,10781,-28653,3334,1745,1603,5399,4240,4119
66449000,3303,-4134,-169,-11,2199,6752,-18460,-449,2362,1442,5639,4159,4560
66501000,2917,-4187,241,172,-296,-510,-12845,832,-952,996,5639,2600,4519
66549000,2451,-4146,-33,-10,1443,1137,-11258,-1242,-456,1212,5520,2360,4560
66601000,2429,-4143,200,47,2201,11818,-9976,-937,-3448,530,5399,1280,4319
66649000,2433,-4023,383,-232,1613,11025,-7657,-1120,-5220,93,5639,680,4080
66701000,2341,-3481,22,74,428,9438,8821,283,-4864,235,5399,720,3559
66749000,2172,-2920,33,-117,1673,-6064,-5887,1686,-4620,772,5399,720,3199
66801000,1254,-2908,216,27,224,-19370,-7352,3212,-1602,-205,5760,720,2839
66849000,552,-2638,114,-39,2201,-4233,9249,1809,-1069,-688,6360,239,2520
66901000,717,-1790,-70,-98,1110,12306,10958,3334,-2033,2187,7440,39,2520
66949000,1046,-1700,-93,-71,1394,-22,-10037,649,-3094,2714,7920,0,2560
67001000,515,-2441,-356,72,700,-16867,-14066,1503,-1426,595,8520,39,2639
67049000,121,-2553,76,58,1028,-2646,2352,405,-373,306,8520,0,2679
67101000,534,-2541,-110,199,973,3395,-8450,-205,-1482,776,8400,39,2799
67149000,466,-3010,64,168,287,-14182,-15225,2297,-1548,-598,8520,0,2760
67201000,90,-2717,10,-32,1076,-13449,9127,100,-272,246,8520,0,2799
67249000,295,-2063,-223,1,1129,1137,2840,-632,-797,2182,8639,-39,2839
67301000,750,-2628,74,223,1171,-8628,-15836,-754,-2250,514,8639,0,2799
67349000,188,-2188,-41,206,1299,-25107,28780,-1731,-818,1236,8520,39,2799
67401000,-31,-727,343,253,1098,-22,21151,-22,95,6577,8520,0,2920
67449000,704,-1155,13,-15,983,9682,-20902,-6430,-1807,5991,8520,0,2960
67501000,579,-1640,242,132,1383,-21628,21822,-2890,-1858,3957,8400,-39,2960
67549000,-177,-430,296,143,235,-17722,34761,-1059,286,6655,8400,0,2839
67601000,210,-681,-528,-60,847,8400,-13394,-6674,-631,6476,7920,0,2839
67649000,603,-1979,452,288,1533,-4294,-7596,-6308,-2501,3223,7680,-240,2920
67701000,29,-1372,62,-21,1394,-23093,35921,-4538,-5608,5601,7799,-1840,3239
67749000,-396,-641,202,-68,2201,-7712,8211,-5393,-5675,8963,7680,-2280,3640
67801000,-305,-1443,-13,21,1038,-4050,-12052,-9909,-6882,7908,7200,-2600,4080
67849000,-410,-1540,39,255,300,-15708,16817,-9177,-6513,7689,6840,-2560,4200
67901000,-887,-708,162,-81,1507,-21323,17305,-5332,-5256,10834,6960,-2640,4319
67949000,-1166,-1068,-144,7,1211,-16684,-10587,-7834,-4377,10514,7079,-2600,4440
68001000,-1272,-1846,121,-86,450,-16440,-150,-7468,-3863,8020,6960,-2560,4519
68049000,-1355,-1618,-12,-180,1464,-16623,19258,-7102,-3756,8613,6840,-2600,4560
68101000,-1274,-1503,214,165,951,-11008,3817,-7712,-3857,10130,6840,-2560,4879
68149000,-1008,-2117,328,166,1760,-8078,-2347,-8383,-4637,8990,6719,-2600,5000
68201000,-797,-2370,-20,217,1029,-11985,13399,-7529,-5288,8608,6719,-2560,5239
68249000,-861,-2050,94,75,1064,-16928,12423,-5942,-5158,9462,6719,-2560,5239
68301000,-1013,-2266,-15,-122,-67,-15769,-2774,-7102,-4640,9040,6719,-2560,5280
68349000,-1044,-2568,89,66,1724,-15403,4183,-6552,-4677,8466,6719,-2600,5360
68401000,-1054,-2294,-56,96,776,-14304,12789,-4660,-4037,10036,6719,-2400,5639
68449000,-982,-2108,18,98,2024,-11374,3206,-3989,-317,11138,6719,-1119,5799
68501000,-737,-2574,122,-5,565,-5576,-5338,-4172,2213,11237,6600,0,6319
68549000,-343,-2853,97,124,272,-144,4854,-3623,1249,11792,6719,0,6760
68601000,231,-2899,114,113,1884,3029,521,-2402,-693,11700,6479,0,6800
68649000,600,-3287,150,-22,1301,-571,-9244,-3012,-1584,10802,6360,39,6800
68701000,785,-3706,-96,63,438,-5210,-2835,-1669,2804,8799,6000,1719,6640
68749000,842,-3606,26,-100,1255,-2463,4793,-632,4228,8290,6000,2239,6400
68801000,1171,-3446,100,-115,1264,6752,1131,-1120,6805,7539,5639,3440,5959
68849000,1712,-3396,269,226,41,11879,-760,-1731,7514,7069,5520,4119,5759
68901000,2295,-3293,51,-70,-143,13649,93,-1181,5952,7278,5160,4279,5720
68949000,2759,-3099,338,122,1069,13161,1558,-998,4743,6791,4920,4279,5399
69001000,3102,-3031,10,100,1791,16274,-3324,-937,5212,7104,4920,4839,5399
69049000,3326,-3025,30,-97,1346,14809,-2652,-1120,4866,7208,4920,4920,5439
69101000,3300,-2967,49,9,1932,8583,399,527,7018,7418,4920,5639,5439
69149000,3164,-2973,-237,-129,797,11147,-1065,-1059,8968,7514,4920,6159,5480
69201000,3330,-2912,-86,46,199,17372,-1920,-1120,8008,7582,4799,5999,5439
69249000,3651,-3242,80,-68,1199,20668,-9976,-1364,7445,6769,4920,6080,5399
69301000,3834,-3757,-6,37,1704,20241,-6253,-1975,6856,5167,4680,6120,5480
69349000,3949,-3893,211,-46,1042,17433,399,-1486,6298,4766,4559,6040,5480
69401000,3991,-3922,287,22,1650,16335,-1309,-2219,6266,4791,4200,6080,5520
69449000,3957,-4169,333,116,2201,16884,-7169,-2646,6326,4336,3840,6080,5560
69501000,3720,-4293,380,25,1542,7973,1131,-1914,7077,3798,4080,6080,5560
69549000,3293,-3993,330,130,2201,8339,6624,-1181,8168,4769,3840,6080,5639
69601000,3201,-3916,172,68,1982,18898,-2286,-2341,8395,5050,3600,5999,5599
69649000,3558,-4067,5,-21,1154,23781,-3629,-4355,7265,4646,3600,5920,5599
69701000,3797,-4014,97,73,1111,16884,2108,-3378,6728,4755,3600,6040,5599
69749000,3693,-3988,116,-79,1625,14565,-4239,-4050,6838,4630,3719,5999,5520
69801000,3489,-4173,47,-48,1257,11696,-7291,-4904,6932,4038,3600,5799,5520
69849000,3311,-4230,-35,102,792,14809,-2469,-3439,6834,3809,3480,5599,5520
69901000,3296,-4032,-26,96,1621,16701,-3568,-4050,5709,4461,3600,5200,5520
69949000,3420,-3984,24,158,759,18837,-10404,-4599,4185,4856,3600,4800,5599
70001000,3417,-3865,-273,-127,200,10353,-3812,-3928,3066,5444,3600,4440,5680
70049000,3191,-3464,69,-113,1061,3761,-394,-3501,1555,6474,3600,3759,5680
70101000,2848,-3427,-69,99,654,1198,-9610,-4904,-1584,8676,3719,2320,6319
70149000,2447,-3749,35,-18,741,-3562,-8328,-5026,-1801,8297,3600,1919,6480
70201000,1961,-3901,96,24,1591,-4782,-2225,-4233,-845,7974,3719,1679,6559
70249000,1662,-3977,106,127,1252,-2158,-7108,-5087,-535,7925,3840,1519,6600
70301000,1429,-4051,131,-15,458,-5393,-5155,-5332,-207,7526,3840,1359,6559
70349000,1261,-3814,243,-6,-33,-8078,1680,-5515,316,7026,3840,1400,6199
70401000,1060,-3834,91,30,952,-8811,-6619,-4965,1017,6737,3959,1400,6080
70449000,898,-4150,170,123,1077,-7956,-7901,-4172,1322,5717,3959,1359,5999
70501000,767,-4138,157,-31,24,-4538,1925,-4416,1297,5584,3959,1199,5999
70549000,736,-4207,-12,168,717,-2890,-3995,-4111,900,5954,3480,1040,6159
70601000,799,-4481,224,136,1783,-2524,-5094,-3989,720,3954,2519,1040,5799
70649000,727,-4507,26,61,363,-7163,2474,-2219,884,3683,2160,1040,5759
70701000,564,-4313,142,37,718,-8750,704,-2097,1425,4338,1560,1040,5759
70749000,480,-4367,-82,98,-1041,-5210,-2774,-1975,1547,4324,839,999,5799
70801000,605,-4481,-146,-27,943,-2036,1986,-1853,1184,3954,1080,999,5799
70849000,768,-4370,64,-84,1196,-3806,1863,-2097,282,4129,1080,840,5759
70901000,758,-4389,265,211,179,-10947,-4849,-2402,-1074,4710,1080,399,5959
70949000,638,-4548,-119,-21,193,-13877,-4056,-2097,-1253,4586,1080,239,6080
71001000,570,-4403,77,-179,39,-11679,-1431,-1975,-1472,5870,1080,79,6359
71049000,628,-4700,250,-39,2113,-8872,-6803,-2707,-1648,5903,1080,79,6559
71101000,647,-5227,157,-32,2201,-8506,-3995,-3317,-1701,5678,1080,79,7119
71149000,560,-5239,210,-29,1230,-10459,3267,-3256,-1469,7605,1080,79,7799
71201000,437,-5088,66,16,116,-13205,-4971,-3989,-953,10293,1199,120,8520
71249000,416,-5097,34,32,-64,-11863,-8939,-3684,-918,11144,1080,120,8800
71301000,395,-4784,-104,-10,-27,-10031,521,-3745,974,12167,1080,720,8840
71349000,348,-4213,-3,-57,988,-6980,-2652,-3439,1850,13880,1080,959,8920
71401000,320,-3957,174,-101,1168,-6552,-12479,-3745,2879,15368,959,1280,9080
71449000,365,-3534,0,-91,-150,-5332,-3446,-4233,2995,17168,839,1359,9360
71501000,441,-2888,-151,126,644,-3745,-4849,-3073,4435,20373,839,1919,9679
71549000,600,-2985,183,141,677,-2097,-20474,-4050,4051,20578,599,1919,9760
71601000,929,-3591,341,147,2201,-4660,-8695,-4050,2971,18746,599,1919,9840
71649000,1097,-3623,167,168,1338,-4966,-1065,-1731,2531,18456,480,1919,9800
71701000,1152,-3634,37,-4,622,-3684,-15103,-2036,2181,18376,480,1879,9760
71749000,1249,-4088,76,-24,2201,-6125,-13638,-2768,2071,16899,480,1919,9639
71801000,1255,-4064,-13,-12,1425,-6552,460,-1669,1994,15766,480,1919,9320
71849000,1231,-3793,0,-51,2201,-6247,-9427,-1731,2054,16170,480,1919,9200
71901000,1119,-3858,-23,-4,85,-9482,-13272,-2951,2401,15545,359,1919,9040
71949000,968,-3675,-6,131,453,-9604,-3018,-2646,2864,15096,0,1960,8759
72001000,913,-3425,18,196,254,-5027,-6070,-2097,3379,15162,-360,2040,8480
72049000,1014,-3828,44,155,435,-4721,-15225,-2951,3105,13117,-1319,2040,8120
72101000,972,-4174,138,-34,2066,-5820,-577,-1608,3202,9677,-1560,2040,7400
72149000,944,-3839,-41,107,561,-6552,13582,527,3177,8726,-1440,2000,6840
72201000,995,-3581,41,-12,1304,-571,704,527,2414,6296,-239,1800,5680
72249000,1211,-3694,25,54,464,2114,154,-1364,-1688,1825,480,599,4319
72301000,1449,-3206,198,-58,1151,-327,15779,-1242,-4229,-1100,359,39,2839
72349000,1604,-2572,163,-63,1263,-1731,18343,527,-4638,-2409,480,39,1840
72401000,1723,-2413,90,69,341,-2890,10225,-693,-5170,-5441,480,0,599
72449000,1696,-2430,0,129,619,-3440,17427,-937,-5004,-4197,599,39,1040
72501000,1663,-2099,-79,98,205,-1059,24569,405,-4751,-3897,480,79,799
72549000,1701,-1908,-34,107,1292,-693,18038,832,-2888,-3963,480,720,599
72601000,1768,-2022,119,-21,1033,-632,13826,161,3694,-6068,480,2999,0
72649000,1913,-1940,176,-83,1073,4799,21639,161,7805,-5967,480,4479,0
72701000,2388,-1643,282,-124,1366,16884,24080,344,9635,-4930,480,5599,0
72749000,3201,-1523,348,-113,1857,26711,18648,222,8794,-4690,599,5999,-39
72801000,3890,-1624,210,50,1001,18776,15902,527,7287,-4994,480,6319,-39
72849000,3910,-1687,190,204,809,8522,19808,1809,9420,-5200,480,7079,-39
72901000,3790,-1655,97,144,879,12062,21151,1809,9988,-5086,480,7119,-39
72949000,3958,-1545,200,132,1884,19753,20235,2236,9623,-4549,480,7119,39
73001000,4366,-1673,38,-145,1315,24330,13094,1076,8140,-4901,480,7079,39
73049000,4622,-1886,87,-130,858,21095,14254,771,7448,-5593,480,7079,0
73101000,4706,-1895,117,78,539,17494,17672,1015,7120,-5686,480,7079,0
73149000,4670,-1813,329,64,1600,14992,15352,954,7171,-5319,480,7079,39
73201000,4704,-1817,258,109,2201,18410,11385,771,7007,-5331,480,7040,39
73249000,4769,-1866,130,-19,1568,16518,13643,-83,5521,-5599,599,6600,0
73301000,4777,-1905,167,-1,2073,16518,15169,344,2108,-4995,480,5480,239
73349000,4771,-1862,110,6,1313,17128,14681,283,-146,-4422,480,4719,399
73401000,4655,-1892,56,130,539,10842,9249,161,-4126,-4478,480,3280,399
73449000,4425,-2174,74,155,1521,8522,3511,100,-9812,-5169,480,1199,399
73501000,4145,-2463,-14,119,694,6508,7051,405,-12317,-6550,720,39,280
73549000,3742,-2480,-182,-127,2100,2114,11324,-449,-11446,-6779,3119,0,239
73601000,3073,-2437,-40,92,1500,-4599,7967,-1486,-9101,-6711,5639,39,199
73649000,2456,-2413,25,73,828,-6980,11568,-4538,-7661,-7369,5039,0,-39
73701000,1969,-2346,-79,-64,1620,-3745,10225,-2646,-5908,-7160,2160,0,-39
73749000,1745,-2538,-7,-109,1258,-1853,1925,-1975,-5336,-7435,599,0,0
73801000,1476,-2934,63,127,248,-5698,2413,-1486,-4548,-8804,119,-39,0
73849000,1083,-3130,119,100,376,-11557,9005,-754,-3378,-9480,-960,39,-39
73901000,591,-3152,-128,160,1888,-12351,10408,-266,-1775,-9576,-3240,0,-39
73949000,290,-3253,29,180,1322,-10703,3817,1198,-963,-9674,-5880,0,0
74001000,114,-3369,166,-55,94,-9177,7845,3884,-343,-10109,-9240,0,0
74049000,156,-3219,90,-186,1383,-7529,12117,6630,-408,-9847,-11040,0,-39
74101000,263,-3349,3,-10,563,-8078,460,7790,-789,-10168,-10920,0,-39
74149000,261,-3885,-71,-37,2201,-13572,-638,8034,-831,-11586,-11040,0,-39
74201000,-30,-3793,177,207,1865,-18637,12728,8217,90,-11500,-10920,0,-39
74249000,-79,-3583,-4,103,-11,-12656,1558,8767,260,-9207,-7680,0,520
74301000,94,-3814,-72,114,-196,-7712,-8573,6386,-403,-5803,-6480,-39,1879
74349000,179,-3893,-254,-7,1868,-11496,-1615,4555,-434,-4541,-1080,39,2400
74401000,67,-3717,-28,191,1110,-14914,-6131,-266,-81,606,0,39,3919
74449000,31,-4026,-50,209,1195,-11985,-20047,-693,24,66,-1319,39,3959
74501000,154,-4372,90,-78,351,-12656,-17545,161,-342,-1236,-2279,39,3959
74549000,382,-4352,184,95,332,-13999,-11258,-144,-914,-983,-6719,39,4000
74601000,713,-4914,82,47,1449,-11740,-29263,2907,-2021,-2742,-9960,39,4000
74649000,819,-5433,251,-46,1579,-14792,-17117,5593,-2364,-4968,-10199,39,3759
74701000,696,-5365,168,79,1012,-13144,-11258,6081,-1969,-4815,-10559,39,3759
74749000,640,-5600,80,38,1752,-9848,-27738,5776,-1829,-5061,-10679,39,3840
74801000,644,-6053,305,23,839,-8994,-17240,7607,-1812,-6519,-11640,39,3880
74849000,829,-5991,248,88,1661,-7468,-10648,8522,-2408,-5859,-11400,0,4040
74901000,954,-6544,-3,251,1267,-6614,-32437,9072,-2623,-7032,-11160,79,4200
74949000,1003,-7196,233,111,1736,-5942,-21573,11391,-2894,-8879,-8400,39,4200
75001000,921,-6719,-71,67,1844,-6552,-3751,9194,-2643,-7438,-4920,39,4240
75049000,900,-6421,50,65,76,-2219,-24381,6325,-2548,-6246,-3479,39,4319
75101000,1068,-6692,182,69,1289,-2402,-22550,7058,-3084,-6516,-2640,39,4519
75149000,1017,-6238,316,107,2201,-8078,-1492,6081,-2789,-4675,-1560,120,4800
75201000,837,-5895,-51,27,1213,-7651,-19803,6630,-2032,192,-960,160,5959
75249000,732,-6267,150,170,1713,-7468,-26822,7180,-1880,1549,-840,120,6719
75301000,578,-6329,84,-47,1501,-10459,-13944,7790,-1734,3091,-599,0,7360
75349000,481,-5905,-119,50,1258,-7285,-11014,8156,-1331,6207,-599,39,8039
75401000,459,-5952,-108,33,360,-8750,-26761,6508,-1258,7943,119,39,8599
75449000,382,-6157,-51,38,436,-12778,-20719,7485,-1062,7693,240,39,8719
75501000,373,-5900,10,55,725,-9238,-14920,5165,-641,8457,359,160,8719
75549000,617,-6015,139,-35,1917,-2646,-26517,4311,1433,8303,359,1040,8719
75601000,1064,-6315,-286,15,865,5226,-20291,4311,3165,6373,359,2119,8440
75649000,1652,-6114,-149,73,-942,9133,-14188,3273,4230,6821,359,2960,8440
75701000,2346,-5876,-113,-115,1230,12795,-19376,4128,2921,7449,359,3320,8360
75749000,2864,-6017,187,33,741,11696,-22428,3762,1333,6193,240,3239,8039
75801000,3036,-6109,176,24,548,4555,-17911,3579,1449,4352,240,3520,7560
75849000,3015,-5945,-3,-52,1515,2052,-12479,5349,2942,4003,359,4000,7320
75901000,3023,-5606,127,21,1191,5470,-11868,4799,3769,4181,240,4279,7000
75949000,3229,-5273,52,196,712,12001,-8389,5471,3319,3276,119,4279,6440
76001000,3505,-4871,56,-28,1743,8888,-3079,4616,2323,1346,240,4279,5320
76049000,3424,-4455,-61,-103,394,5593,-2713,5227,2484,1229,240,4279,4920
76101000,3361,-4152,78,278,1100,9438,-1431,4128,2756,1223,240,4279,4560
76149000,3486,-3910,78,44,625,9377,-3751,4311,2411,1524,240,4279,4440
76201000,3221,-3606,82,-98,767,-1609,3450,5837,3295,701,240,4319,3840
76249000,2739,-3128,167,-31,1121,1259,4549,4738,4576,1222,240,4319,3599
76301000,2820,-2993,32,-63,1564,12795,-2408,3579,4739,1219,359,4400,3399
76349000,3087,-3080,31,64,-5,14382,2657,4128,4179,1067,359,4440,3440
76401000,3326,-2667,260,186,1150,12184,10714,2602,3219,2438,599,4400,3480
76449000,3247,-2499,140,114,1459,4128,338,2114,3546,3107,480,4479,3520
76501000,2817,-2783,-81,-65,1626,1503,2596,588,5347,2089,359,4600,3480
76549000,2431,-2439,190,-148,1381,-327,20723,893,8133,2970,480,5200,3520
76601000,2446,-1979,40,-67,228,15053,9981,2541,9461,4621,480,5599,3520
76649000,3210,-2381,84,69,442,32204,-4300,1015,7756,4226,480,5639,3680
76701000,4142,-2727,273,206,-151,22804,9188,1809,5212,3217,480,5880,3800
76749000,4135,-2567,135,144,1827,10292,9066,6020,5125,4008,480,5880,3919
76801000,3902,-2851,236,-94,1995,16579,1925,3579,6413,4046,480,6040,4200
76849000,4208,-2930,-153,-70,762,28786,7235,1381,5503,4468,480,5959,4440
76901000,4614,-2677,268,130,-299,27077,5037,588,4276,5167,480,6040,4400
76949000,4819,-2856,24,124,473,19020,2901,-2890,3785,4604,599,6080,4360
77001000,4666,-2861,98,108,1816,11696,11934,-3073,4240,4616,480,6080,4400
77049000,4211,-2849,255,24,1540,3151,8516,-3195,5350,4753,480,6080,4400
77101000,3757,-3129,46,148,-19,2724,9127,-6247,5768,4412,480,5680,4600
77149000,3305,-2898,23,183,-967,1381,21395,-6186,3889,5625,480,4679,4839
77201000,3444,-2750,26,-94,481,17250,5587,-6491,-254,8067,480,3359,5439
77249000,3960,-3255,173,257,1087,22133,216,-8322,-4653,8571,480,2320,6040
77301000,4091,-2928,135,277,810,8766,26827,-6003,-6994,10415,480,1760,6400
77349000,3736,-2444,-11,7,191,-2707,14376,-4843,-6447,12007,480,1679,6480
77401000,3100,-2881,338,191,1865,-8445,4305,-8078,-4381,11156,480,1640,6600
77449000,2092,-2903,255,225,1360,-23520,26216,-7102,-1842,11108,480,1679,6680
77501000,1005,-2410,-110,-22,-302,-21323,19258,-4477,2022,12807,480,1679,6680
77549000,535,-2571,108,-3,1310,-8567,1802,-5942,3332,12390,480,1679,6640
77601000,490,-2830,60,226,954,1137,7174,-5087,3449,11428,480,1640,6640
77649000,761,-2634,-106,54,-335,4311,11568,-3867,2436,12015,480,1519,6680
77701000,988,-2839,246,196,-622,1015,-2408,-2219,993,11760,599,1319,6760
77749000,1109,-3322,256,-26,884,-6186,-516,-2707,734,10398,359,1359,6719
77801000,995,-3405,166,106,96,-10031,9371,-1547,1213,9943,480,1400,6719
77849000,799,-3232,220,-57,454,-14975,9859,-205,1492,10535,359,1359,6760
77901000,583,-3460,76,27,-33,-12900,-89,-449,2328,10618,359,1359,7000
77949000,513,-3899,28,113,1014,-10398,1375,-998,2395,10043,480,1319,7200
78001000,578,-3889,96,78,984,-6797,6014,-1303,2345,9930,359,1359,7200
78049000,723,-3687,294,180,1906,-2585,5159,-876,1896,10611,359,1319,7240
78101000,1087,-3980,-160,-88,839,893,-1798,-1181,-263,9777,359,999,7240
78149000,1197,-4220,-125,-54,384,-6552,-28,-1792,-1300,9462,480,759,7360
78201000,1008,-4105,179,52,1193,-13205,3206,-1242,-866,10124,359,720,7479
78249000,739,-4051,337,19,876,-15219,-150,-327,-1088,11162,240,439,7760
78301000,524,-4312,-51,137,357,-11618,-4544,-571,-1214,11423,359,120,8120
78349000,426,-4640,35,22,1850,-12229,-1187,-510,-1305,11045,359,0,8280
78401000,400,-4855,164,-47,1360,-10520,-3018,405,-1200,10512,480,0,8360
78449000,555,-5191,74,-140,1233,-6430,-5826,-205,-1728,9666,480,-39,8360
78501000,801,-5474,97,155,1369,-6003,-516,-327,-2403,9257,480,0,8559
78549000,824,-5490,127,62,1391,-10581,-1492,1931,-2447,9118,359,0,8520
78601000,739,-5579,207,-92,2201,-14182,-4422,1198,-2217,8940,359,0,8559
78649000,615,-5652,249,-53,1465,-12473,-1126,649,-1900,8838,359,0,8599
78701000,624,-5625,71,68,-449,-8323,-821,1381,-1873,8922,359,0,8599
78749000,842,-5783,60,-132,1307,-4721,-5826,222,-2381,8459,359,0,8559
78801000,1022,-5981,86,-69,1145,-4660,-3751,283,-3068,7736,240,0,8559
78849000,1034,-5919,68,166,1471,-5576,-577,1564,-3190,7892,359,-39,8559
78901000,1116,-5993,-55,-136,-414,-5576,-2103,1564,-3349,7699,359,0,8559
78949000,1242,-6014,90,-62,268,-3135,-1615,1320,-3698,7476,359,0,8520
79001000,1251,-5839,-7,107,-255,-3501,-1554,1442,-3874,8521,480,-39,8680
79049000,1225,-5886,99,102,1657,-4050,-4544,1625,-3631,8356,359,0,8640
79101000,1247,-6145,387,26,2201,-4721,-5765,771,-3741,7484,359,0,8640
79149000,1286,-6237,165,117,1763,-693,-3934,1747,-3799,7321,240,0,8680
79201000,1469,-6127,177,-8,2201,3334,-3568,1686,-4407,7896,240,0,8759
79249000,1624,-6094,-100,-82,470,1991,-5643,1686,-4702,8102,240,39,8800
79301000,1722,-6080,-116,166,169,1747,-4849,649,-5046,8158,119,39,8800
79349000,1799,-5969,-183,74,292,1808,-4056,1931,-5350,8420,359,0,8800
79401000,1920,-5837,-40,53,1176,1259,-5887,1381,-5760,8768,240,0,8759
79449000,1964,-5857,113,-45,1553,1198,-7657,344,-5986,8638,359,-39,8719
79501000,1870,-5852,92,121,2183,-1670,-3934,527,-5612,8361,240,0,8640
79549000,1848,-5677,120,158,1482,2663,-3629,1564,-5522,8331,240,0,8480
79601000,1942,-5548,108,106,1690,3151,-4849,893,-5828,8794,240,0,8480
79649000,2024,-5489,172,79,778,3090,-4483,588,-6019,9054,240,0,8520
79701000,2089,-5523,133,-67,727,2236,-5826,-510,-6147,8510,359,39,8360
79749000,2063,-5670,93,111,-61,1869,-4971,-388,-6120,7795,359,39,8239
79801000,2047,-5747,125,85,144,3090,-2042,-815,-5902,6878,119,79,8039
79849000,2047,-5741,89,164,99,2358,-1431,-205,-6023,6820,240,39,7999
79901000,2055,-5857,0,-119,376,4372,-4056,-632,-6165,6306,240,0,7960
79949000,2061,-5884,40,-29,1737,3456,-638,-1059,-6198,5857,240,0,7839
80001000,2062,-5713,-108,-114,1485,6325,2169,-205,-6067,6018,240,39,7720
80049000,2168,-5692,-278,-139,1395,7118,-1798,-327,-6221,5959,240,79,7679
80101000,2095,-5621,146,-32,1003,3945,2352,-1853,-6047,6055,119,79,7639
80149000,1927,-5436,-48,25,744,343,1131,-693,-5656,6301,240,79,7560
80201000,1600,-5338,175,-172,911,-6247,1619,-876,-4561,6425,119,79,7479
80249000,1306,-5253,141,-104,1110,-3684,93,-815,-3789,6524,240,79,7439
80301000,1452,-5220,355,112,946,8827,2474,-1486,-3997,6659,0,120,7439
80349000,1926,-5188,103,224,797,14748,948,-937,-5313,6663,119,79,7400
80401000,2267,-5311,36,132,1494,7607,-2408,-1669,-6563,6266,119,79,7400
80449000,2183,-5374,26,146,1289,710,3267,-632,-6538,6029,119,39,7400
80501000,1895,-5319,75,58,1894,893,3084,1625,-5326,6120,119,120,7360
80549000,1736,-5331,169,207,1495,1137,-394,466,-4917,6105,0,120,7360
80601000,1533,-5340,369,187,1977,-1853,2779,405,-3760,5818,-119,280,7279
80649000,1295,-5278,132,289,756,-3379,4854,1503,-2881,6117,119,360,7320
80701000,1195,-5455,211,-35,2067,1259,-1126,1625,-2506,5474,-239,360,7279
80749000,1326,-5743,54,53,1469,8583,-2713,222,-2535,4462,-360,439,7200
80801000,1532,-5699,-111,106,1237,5470,6502,1442,-2916,4502,-360,559,7200
80849000,1573,-5595,192,65,1638,3212,3267,1686,-2900,4613,-480,599,7119
80901000,1529,-5815,215,-21,2201,1686,1375,1381,-2667,3793,-719,639,7079
80949000,1584,-5833,71,-90,1630,8339,2413,1442,-2372,3714,-719,759,7079
81001000,1686,-5717,-38,-38,2201,7912,3756,39,-2780,3968,-719,759,7040
81049000,1678,-5559,-81,13,973,7057,1863,1137,-2468,4287,-960,840,7000
81101000,1599,-5479,17,-163,1552,38,1863,893,-2279,4561,-719,840,7000
81149000,1520,-5531,95,34,1389,-2341,-5643,1259,-2096,4614,-840,840,7040
81201000,1357,-5528,205,43,1269,-2097,2840,1992,-1433,4535,-719,880,7040
81249000,1384,-5122,-4,14,777,1381,14620,4433,-1352,5403,-719,920,7000
81301000,1543,-4818,173,67,2201,4128,6807,5593,-1991,6543,-719,880,7000
81349000,1470,-5127,-120,-108,2186,-6308,-4300,3579,-2264,5868,-719,759,7000
81401000,1181,-5401,-44,-38,457,-7529,1314,3029,-2465,5035,-719,360,7079
81449000,941,-5408,-18,-164,1690,-7712,2474,3456,-2125,5133,-719,280,7119
81501000,726,-5449,-4,-76,1165,-5088,1253,2907,-1458,5011,-719,239,7119
81549000,623,-5524,38,90,271,-6552,1070,2236,-957,4808,-840,320,7119
81601000,377,-5575,50,-40,1320,-10520,1558,2114,-293,4752,-840,280,7160
81649000,241,-5660,207,-22,1684,-7224,-699,2419,108,4663,-719,280,7200
81701000,311,-5817,163,94,163,-1914,460,710,-213,4148,-840,239,7200
81749000,550,-5910,236,61,1112,-510,1558,832,-326,3807,-719,399,7160
81801000,840,-5945,11,17,604,2419,2657,2419,-242,3643,-960,759,7160
81849000,1127,-6113,261,103,-521,4311,-3629,2175,-694,3207,-960,840,7119
81901000,1350,-6615,171,77,247,-266,-6741,588,-450,1392,-960,1199,7079
81949000,1196,-6564,-4,-22,1160,-6919,10286,1686,106,1487,-840,1280,7119
82001000,847,-6023,69,47,1240,-5454,7967,4860,1538,3290,-840,1359,7119
82049000,721,-5935,-81,136,1131,1442,-150,1992,1927,3465,-960,1359,7079
82101000,1111,-6030,160,132,1236,12245,1558,771,985,2909,-960,1440,7000
82149000,1534,-5884,244,148,989,4677,7967,1564,78,3133,-960,1519,6960
82201000,1405,-5787,64,-46,1841,-4905,3267,5104,583,3396,-960,1600,6919
82249000,1281,-5945,1,-21,1942,1808,-1492,2968,1697,2791,-840,1840,6840
82301000,1405,-6090,161,-152,2201,3700,-1065,2968,2382,1888,-840,2200,6719
82349000,1680,-6211,155,-78,1697,11696,826,2419,2359,1333,-960,2400,6640
82401000,2141,-6403,278,138,1775,15114,-3507,2236,775,709,-960,2400,6640
82449000,2542,-6806,150,98,571,15114,-9183,3151,-249,-165,-960,2400,6680
82501000,3070,-7205,84,-69,1729,23720,-7169,3518,-1772,-1696,-960,2479,6640
82549000,3619,-7202,-164,-78,999,21645,3328,2480,-2971,-1835,-960,2560,6640
82601000,3732,-6898,-14,0,791,14137,1497,4311,-3516,-894,-1080,2560,6600
82649000,3589,-6863,-140,-195,917,8156,-2652,2846,-3305,-926,-960,2520,6559
82701000,3223,-6669,-113,-71,-849,-449,4854,3456,-1990,-447,-960,2560,6519
82749000,2909,-6282,237,-32,1352,99,4793,4372,-1364,215,-960,2520,6400
82801000,2600,-6444,40,-25,794,7485,-14737,2968,-3121,-614,-1080,1559,6240
82849000,2491,-6905,42,-139,1264,10231,-10770,2602,-4850,-1752,-960,880,6280
82901000,2413,-6553,252,-59,709,6203,8577,2602,-7119,-701,-960,39,6319
82949000,2326,-6187,163,-78,1423,4616,-150,4555,-6977,541,-960,39,6400
83001000,2044,-6209,141,94,-323,-5454,-3568,1381,-6134,691,-840,0,6440
83049000,1493,-6194,205,178,1803,-6614,826,2480,-4638,1034,-960,39,6559
83101000,974,-6031,89,48,1336,-4172,1131,3090,-2802,1586,-960,39,6559
83149000,725,-6017,17,63,1168,-205,-2896,1564,-2094,1646,-960,39,6559
83201000,652,-5902,126,-54,2201,1320,1986,893,-1956,1493,-960,0,6400
83249000,680,-5740,-73,-61,1984,-571,1131,893,-1908,965,-840,39,6080
83301000,579,-5733,13,-87,1950,-2890,-2286,1625,-1737,558,-960,0,5920
83349000,486,-5865,51,-79,1939,-1426,-3018,1503,-1460,211,-960,0,5920
83401000,381,-5752,207,-39,1205,-4782,5098,222,-1143,621,-960,0,5959
83449000,354,-5560,70,-126,1440,-388,-394,2053,-1023,1175,-840,0,5959
83501000,401,-5615,-13,-37,1896,-2768,-821,39,-2643,912,-840,-479,5920
83549000,314,-5499,-53,-82,1389,-5881,3695,1015,-6166,62,-960,-1720,5560
83601000,84,-5295,81,89,527,-11863,3389,1870,-7454,-1006,-840,-2400,4960
83649000,-18,-5214,152,60,326,-11313,-821,1137,-7184,-1388,-960,-2400,4760
83701000,-39,-5211,341,99,1254,-12046,1619,649,-8760,-2075,-840,-2960,4519
83749000,-75,-5088,-16,14,1071,-13144,4793,1137,-9183,-1936,-840,-3120,4479
83801000,-198,-4948,124,208,-143,-19126,3817,1137,-9605,-1524,-840,-3400,4440
83849000,-521,-4871,124,211,544,-24619,6380,222,-9951,-1243,-719,-3760,4479
83901000,-952,-4621,25,89,846,-24680,11019,1931,-8901,-784,-719,-3919,4360
83949000,-1232,-4400,29,52,872,-21445,7845,3579,-8514,-845,-719,-4040,4119
84001000,-1040,-4523,-14,307,729,-9970,1925,2480,-11878,-1929,-719,-5000,3880
84049000,-773,-4631,131,172,1640,-13510,6990,1625,-12616,-2609,-599,-5000,3759
84101000,-762,-4548,50,191,1684,-16928,9859,4433,-12713,-2365,-480,-5000,3759
84149000,-677,-4540,23,-42,724,-12900,5281,4738,-12879,-1967,-480,-5000,3880
84201000,-594,-4539,222,25,1852,-13083,6685,3151,-12857,-1977,-480,-4880,3880
84249000,-626,-4601,-61,-53,1050,-13694,32,3151,-12504,-2455,-719,-4800,3759
84301000,-569,-5065,-63,-166,1886,-7407,-6803,893,-12810,-4275,-719,-4839,3640
84349000,-288,-5278,-47,-155,345,-2158,2352,710,-11075,-4799,-480,-4040,3680
84401000,76,-5227,0,96,274,1137,3145,466,-11150,-4522,-480,-3639,3719
84449000,338,-5321,-60,56,511,-1181,-1126,-998,-11611,-4711,-360,-3559,3719
84501000,439,-5375,-27,17,549,-1426,4610,-1242,-9357,-4966,-480,-2680,3719
84549000,538,-5421,180,-19,563,-937,3084,-754,-9284,-5042,-480,-2560,3719
84601000,615,-5627,-31,77,1491,466,-3873,588,-9526,-5841,-480,-2560,3680
84649000,682,-5901,-78,3,569,3517,-4849,649,-9551,-6394,-480,-2519,3719
84701000,998,-6043,89,44,1982,8888,-5155,1381,-10195,-6850,-480,-2400,3759
84749000,1214,-6029,176,102,810,3029,-2530,1259,-9503,-7128,-480,-1959,3680
84801000,1038,-5666,231,64,270,-4172,6441,3456,-6954,-6078,-480,-1280,3640
84849000,839,-5364,265,168,1461,-876,-821,2846,-3313,-4784,-480,-240,3800
84901000,746,-5345,-3,74,1067,3151,-3018,710,-2360,-4637,-480,-39,3800
84949000,806,-5223,-30,-25,966,7790,1375,1381,-2437,-4373,-480,-39,3800
85001000,1113,-5222,151,-32,971,14015,-6619,832,-3341,-4268,-360,0,3800
85049000,1322,-5290,31,-68,1131,7607,-3751,832,-3950,-4505,-480,0,3800
85101000,1183,-5086,91,99,-245,3700,-699,1931,-3549,-2780,-480,0,4159
85149000,1204,-5039,268,67,5,8705,-7047,1503,-3554,-1576,-480,0,4479
85201000,1373,-5252,80,-143,984,12001,-8512,893,-4000,-1836,-480,39,4640
85249000,1462,-5416,379,39,1652,7363,-7413,1137,-4162,-2348,-360,79,4600
85301000,1387,-5721,15,-40,1648,6935,-11075,832,-1283,-3485,-480,959,4560
85349000,1261,-5762,-151,71,319,8034,-4605,1686,-550,-3545,-480,1080,4600
85401000,1354,-5593,16,-128,1470,15968,-6741,2358,736,-3100,-239,1600,4560
85449000,1708,-5774,50,-131,93,16640,-11502,1503,-175,-3842,-239,1600,4440
85501000,1930,-6019,165,227,-244,12367,-6314,2297,-1112,-7258,-360,1559,3599
85549000,1896,-6107,4,-39,2001,9865,-6497,3151,-2134,-8402,-360,1199,3320
85601000,1754,-6200,279,64,2201,7424,-1615,1015,-3823,-9840,-360,480,2920
85649000,1619,-6099,-17,-85,1574,11330,-1737,3884,-5019,-10994,0,-39,2439
85701000,1483,-6010,26,-56,122,10109,-882,2541,-4449,-14792,119,0,1080
85749000,1266,-5658,236,17,399,-1609,7540,100,-4018,-17339,119,0,-39
85801000,863,-4988,197,-2,1338,-3562,13582,1686,-2591,-15085,0,0,-39
85849000,658,-4500,110,-72,2201,8034,8455,1320,-2099,-13693,119,-39,0
85901000,836,-4332,142,-143,1015,10781,4793,-876,-2509,-12996,119,0,0
85949000,1109,-4229,30,-47,417,12428,7540,649,-3090,-12889,240,39,-39
86001000,1274,-4082,69,-82,692,11391,6197,1076,-3823,-12367,119,0,-39
86049000,1240,-4072,214,34,1341,5898,5465,-205,-3866,-12367,119,-39,-39
86101000,1054,-4149,146,-38,1886,2175,1558,-1120,-3163,-12569,240,0,-39
86149000,1024,-4232,26,1,184,8339,2901,344,-3067,-12761,240,0,-39
86201000,1028,-4127,163,-171,1445,7546,6075,588,-3084,-12503,359,0,-39
86249000,907,-4011,142,-164,1046,2358,5892,39,-2810,-12168,240,0,-39
86301000,765,-4113,104,63,134,954,887,-388,-2297,-12460,240,0,-39
86349000,682,-4273,157,84,2201,3090,704,588,-2792,-12767,240,-240,0
86401000,751,-4237,355,44,1087,5898,4427,-144,-7295,-12352,240,-1679,120
86449000,804,-4152,136,145,1566,3456,4061,-632,-10199,-11391,240,-2600,360
86501000,490,-4401,-94,-59,2201,-7346,-211,-571,-11672,-11883,240,-3400,439
86549000,-120,-4461,-13,-24,-34,-15586,4854,344,-11260,-11811,240,-3760,520
86601000,-698,-4319,-102,-94,-361,-13266,6563,100,-10025,-11518,359,-4040,480
86649000,-840,-4329,181,107,-102,-8750,1741,-1547,-12427,-11629,240,-4960,439
86701000,-846,-4318,185,190,-17,-13205,7112,-449,-13181,-11755,240,-5240,399
86749000,-1081,-4071,18,143,2201,-16867,6014,527,-12598,-11015,240,-5240,439
86801000,-1479,-3983,153,-18,1185,-16562,-333,-22,-11280,-10510,240,-5240,480
86849000,-1745,-3897,-12,0,867,-16379,4061,222,-10558,-10149,240,-5240,559
86901000,-1897,-3463,-204,3,1230,-13510,8577,466,-9907,-7750,359,-5200,880
86949000,-1931,-3300,-112,46,741,-10764,-3262,588,-9785,-7094,119,-5200,920
87001000,-1867,-3675,-44,-95,1725,-11679,-6986,649,-8916,-6827,240,-4839,1400
87049000,-1997,-3684,-47,-78,810,-16928,6624,954,-4325,-4783,240,-3400,2119
87101000,-2097,-3455,-122,101,964,-9177,2779,2358,-1987,-2686,359,-2760,2560
