time_ms,imu_roll,imu_pitch,ax,ay,az,gx,gy,gz,Setpoint_rollRate,set_pitchRate,Setpoint_yawRate,Setpoint_roll,Setpoint_pitch,radio_3,height,heightRate,
101000,-67,-109,-6,0,994,-97,-28,84,-70,-868,240,-80,-39,0,161,668,161000
150000,-48,-121,-15,11,989,24,-89,-98,-414,-937,240,-119,-39,0,170,563,125000
201000,-17,-120,13,3,1002,24,93,23,-361,-933,480,-80,-39,0,120,206,120000
250000,4,-122,-1,-4,994,24,-89,84,-492,-1178,359,-80,-80,0,114,261,118000
301000,22,-125,-4,5,1010,-36,-28,-98,-595,-1194,359,-80,-80,0,155,153,155000
350000,48,-125,-12,12,1002,-36,32,267,-747,-1197,240,-80,-80,0,103,-5,94000
401000,73,-121,-18,2,1002,24,-89,-159,-1124,-1172,240,-119,-80,0,73,-125,73000
450000,76,-118,-54,9,1000,24,-28,267,-1140,-1153,480,-119,-80,0,121,86,95000
501000,72,-122,-33,6,1002,24,32,-220,-888,-1411,359,-80,-119,0,155,183,155000
550000,69,-130,-1,-1,989,85,-89,23,-868,-1454,480,-80,-119,75,135,146,101000
601000,61,-134,18,-5,993,24,32,-98,-825,-1248,359,-80,-80,88,138,84,138000
650000,54,-140,7,-4,996,24,32,-37,-782,-1284,359,-80,-80,900,31,-152,-1
801000,22,-143,2,10,999,-97,32,145,-594,-1301,1000,17,-131,0,5,995,85
950000,18,-122,3,0,991,24,-28,-37,-574,-1406,359,-80,-119,115,145,55,58000
1001000,18,-115,-1,-7,1008,-97,32,84,-803,-1137,359,-119,-80,152,121,-89,121000
1050000,-5,-115,-24,-89,1232,695,-1371,5394,-431,-1137,359,-80,-80,153,128,-115,151000
1101000,-60,-57,-65,-174,834,-10229,5037,-5958,-110,-799,240,-80,-80,151,95,-318,95000
1150000,-84,-85,23,-41,966,-8825,2534,4234,24,-961,359,-80,-80,153,71,-190,114000
1201000,-71,-66,21,57,994,1306,-150,-3089,-48,-1084,359,-80,-119,153,109,-39,109000
1250000,-66,-30,21,-53,1037,-158,398,999,-79,-873,359,-80,-119,164,111,-26,85000
1301000,-88,-47,8,30,977,-402,-211,450,47,-743,480,-80,-80,174,108,-31,108000
1350000,-50,14,-46,-8,1032,756,93,-1685,-168,-382,480,-80,-80,178,161,240,129000
1401000,-49,38,-17,39,1029,-769,642,3135,56,-472,480,-39,-119,193,159,161,159000
1450000,-44,25,117,-54,1181,-2539,764,-1990,-208,-314,359,-80,-80,238,79,-234,126000
1501000,-56,65,-69,-61,1128,3442,-2836,450,-369,147,240,-119,-39,265,141,94,141000
1550000,17,68,-137,-7,872,-1379,2534,694,-567,-64,240,-80,-80,287,182,220,106000
1601000,-10,69,-213,-30,363,-3881,3206,6492,-405,-291,240,-80,-119,287,151,-148,151000
1650000,14,115,-142,160,720,2709,-578,5577,-783,437,240,-119,-39,287,151,80,287
1901000,21,59,128,-61,401,634,-1432,-37,-589,-116,240,-80,-80,286,137,-90,137000
1950000,77,27,-35,34,839,756,3145,-2296,-916,-303,359,-80,-80,287,126,-121,130000
2001000,170,-100,250,133,1256,2282,5037,-5592,-1454,-816,240,-80,-39,286,141,23,141000
2050000,246,-52,13,-7,867,-341,-2409,3868,-2132,-768,359,-119,-80,287,85,-229,173000
2101000,259,-140,-116,34,922,-3027,-1005,84,-1973,-1515,240,-80,-119,286,171,134,171000
2150000,232,-195,43,-102,1029,1733,459,-892,-2051,-1833,240,-119,-119,287,132,-1,180000
2201000,146,-127,-6,-61,956,-1379,-4423,2586,-1550,-1205,359,-119,-80,287,167,79,167000
2250000,99,-192,-177,-35,853,1550,2656,-2662,-1506,-653,359,-160,79,295,160,36,175000
2301000,61,-51,86,84,905,-1745,581,1121,-1053,-69,7680,-119,39,294,107,-355,107000
2350000,69,26,-147,-77,1237,1062,-2592,-831,-867,1082,5039,-80,160,302,122,-289,95000
2401000,17,-39,-38,-69,634,-952,-28,2830,-569,-693,240,-80,-80,308,112,-378,112000
2450000,-47,181,89,36,1080,2038,3816,-3822,-189,357,359,-80,-119,309,155,16,88000
2501000,-77,20,12,-5,875,24,-5765,572,-12,-578,599,-80,-119,309,131,-72,131000
2550000,-50,121,-140,-103,1056,-585,6074,1243,-170,239,599,-80,-80,311,124,-189,143000
2601000,0,86,95,-9,1368,1306,-6681,389,-469,38,480,-80,-80,322,125,-19,125000
,,,,,,,,,,,,,,,,,
2850000,-10,181,270,-39,918,1794,-2531,999,-404,588,359,-80,-80,326,100,-49,193000
2901000,-57,57,76,-70,965,-1135,3206,1060,-132,-131,480,-80,-80,324,145,152,145000
2950000,-58,198,-181,-23,1562,-1745,-944,3258,-357,691,1799,-119,-80,325,106,-242,130000
3001000,-19,11,-85,-54,1041,6372,-2836,-2113,-352,-395,3000,-80,-80,0,,,
3101000,55,47,-134,46,1099,6066,-12418,2586,-787,-191,2879,-80,-80,327,110,-146,110000
3150000,15,-13,38,93,265,4,359,-119,-119,384,120,-69,120000,,,,
3250000,64,-168,-77,32,723,-4187,947,1488,-1070,-1679,359,-119,-119,384,84,-217,130000
3301000,111,275,37,16,1371,4846,6318,694,-1111,673,359,-80,-160,384,91,-18,91000
3350000,85,220,87,106,1292,7409,-9855,755,-961,352,359,-80,-160,383,103,-183,68000
3401000,160,168,-108,-43,1052,6738,-3019,-2296,-1397,50,359,-80,-160,385,94,-81,94000
3450000,202,230,-82,-77,1307,-463,-8146,2037,-1639,409,359,-80,-160,399,119,86,102000
3501000,243,-28,45,-53,1545,11193,-2897,-1380,-1881,-861,240,-80,-119,405,152,255,152000
3550000,170,243,270,180,1463,14611,-8451,1304,-1686,949,240,-119,-80,407,69,-392,129000
3601000,176,-125,-109,152,1220,15283,-10526,-4676,-1490,-1428,240,-80,-119,420,127,-8,127000
3650000,98,145,-30,-336,909,-2111,14314,2708,-1270,379,480,-119,-80,429,164,65,104000
3701000,129,-300,-18,-54,1150,146,-12785,877,-1451,-2213,359,-119,-80,434,129,-53,129000
3750000,89,-139,0,-216,1470,1550197,156,-71,-26,445,-6018,4243,816,-1612,-487,480,-80
4001000,179,411,-48,46,1154,1000,-2714,-159,-1741,1227,240,-119,-199,435,154,349,126000
4050000,175,163,136,24,1297,5090,-4118,-709,-1720,-444,240,-119,-240,435,131,-58,99000
4101000,175,476,258,-78,605,2160,-14127,511,-1484,1374,359,-80,-240,436,182,188,182000
4150000,166,349,-152,185,1419,2343,9187,-37,-1433,866,240,-80,-199,445,115,-72,98008
4301000,69,323,283,-164,1262,3015,-10038,2281,-871,1183,359,-80,-119,449,189,276,189000
4350000,-6,-88,-419,-22,1451,268,14924,-1319,-424,-1209,240,-80,-119,450,100,99,86000
4401000,-57,-43,426,-126,482,-2905,-11930,2403,-128,-717,240,-80,-80,456,131,-74,131000
4450000,-143,-139,-503,66,813,-3576,3511,-2296,136,-1278,240,-119,-80,478,195,391,132000
4501000,-125,72,-197,-131,532,-4797,6990,-465,262,-276,240,-80,-119,490,104,-129,104000
4550000,-143,29,321,277,974,-1806,-6010,1365,371,-525,359,-80,-119,492,98,-207,106000
4601000,-81,-28,-563,-194,1123,3259,1619,-465,8,-1097,359,-80,-160,494,131,3,131000
4650000,-42,131,478,48,1077,-3576,-5827,1182,-219,-167,359,-80,-160,503,91,-34,59000
,,,,,,,,,,,,,,,,,
4901000,124,302,-73,-271,984,-708,12056,1060,-1188,827,359,-80,-160,525,110,-634,110000
4950000,170,138,-281,-9,802,3015,-13944,-37,-1453,-126,240,-80,-160,526,207,-124,142000
5001000,310,33,-114,190,1168,634,14924,938,-2272,-735,240,-80,-160,526,125,-254,125000
5050000,306,50,344,-43,1844,-3393,-14310,5943,-2478,-404,240,-119,-119,527,95,-205,135000
5101000,531,-84,-375,53,1258,-3454,13582,4295,-3787,-1419,240,-119,-160,528,168,180,168000
5150000,504,-37,-765,-146,745,-1623,-3080,23,-3395,-917,240,-80,-119,539,154,245,120000
5201000,560,-224,-414,-215,542,207,6807,5211,-3723,-2233,240,-80,-160,541,149,147,149000
5250000,312,75,-57,113,1751,1245,-11442,8507,-2513,-489,240,-119,-160,541,117,-281,61000
5301000,317,-83,347,-19,-143,5395,5769,2769,-2311,-1412,359,-80,-160,545,95,-765,95000
5350000,85,121,963,139,716,1428,-3568,2830,-960,-221,240,-80,-160,555,42,-913,112000
5401000,59,-127,904,354,1926,2893,10408,2281,-1041,-1440,240,-119,-119,563,130,86,130000
5450000,-58,-10,416,396,1926,-3820,11445,2159,-123,-760,359,-80,-119,565,178,411,108000
5501000,0,22,-730,-555,-389,2526,-2531,9239,-464,-798,119,-80,-160,566,140,-336,140000
5550000,-218,502,-331,-387,814,-1623,8211,8507,807,1989,240,-80,-160,566,119,-173,167000
5601000,-4,714,182,-13,1908,11254,7295,7957,-673,3223,240,-119,-160,568,122,13,122000
5650000,274,893,737,455,1926,3747,19075,9422,-2291,4265,240,-119,-160,578,88,-157,98000
5701000,48,1252,111,-142,-845,-10473,4609,9361,-747,6351,240,-80,-160,581,135,-705,135000
5750000,24,1597,735,384,261,3198,10225,5577,-608,8353,359,-80,-160,581,110,-333,103000
5801000,64,1657,668,236,465,2770,9370,8629,-838,8704,240,-80,-160,581,115,-158,115000
5850000,131,1654,-338,33,273,3381,1069,11925,-1229,8688,240,-80,-160,581,110,-103,132000
5901000,448,1365,-89,-341,-77,18823,-8451,8446,-3071,7238,359,-80,-119,581,170,-17,170000
5950000,483,1467,267,176,1558,3076,7905,10277,-3273,8066,359,-80,-80,580,152,-459,134000
6001000,499,1607,612,327,1926,5822,14314,4844,-3367,8876,240,-80,-80,580,160,-48,160000
6050000,927,1378,-251,-254,1043,13757,-4606,9849,-5856,7782,359,-80,-39,580,129,-74,117000
6101000,1038,944,134,124,1063,2770,-10953,10521,-6502,6187,240,-80,120,580,84,-253,84000
6150000,1003,827,-316,263,1349,-1379,4854,9605,-6296,8761,240,-80,680,581,125,274,143000
6201000,1022,972,153,197,646,-3210,2168,7286,-6407,8445,359,-80,480,581,98,-518,98000
6250000,880,1222,-349,-449,-1086,756,-6376,8629,-5583,6642,480,-80,-80,581,131,-397,107000
6301000,861,1413,-888,-236,357,7226,4426,9056,-5470,7752,3119,-80,-80,583,159,-190,159000
6350000,728,1621,-280,-201,1023,2038,-3446,7652,-4697,8958,6960,-80,-80,584,161,-106,140000
6401000,756,1413,376,-114,1306,11376,-15531,2220,-5092,7520,8040,-119,-119,584,137,126,137000
6450000,744,1295,68,156,1821,-402,1802,4356,-5258,6832,8280,-160,-119,584,124,-16501000,275
6550000,182,1513,421,370,1926,-4187,14192,-1441,-19196,8332,13080,-3120,-80,584,203,275,150000
6601000,21,1721,-721,-30,1296,-18530,-1493,-2784,-23842,9310,14400,-4080,-119,583,165,-216,165000
6650000,-647,1499,877,78,1926,-20483,-6556750000,-1427,784,-306,-325,-833,-15539,-22550,-3944,-17974,4097
6801000,-1898,832,257,206,625,-18225,9614,-3883,-15004,4371,13439,-4479,-80,584,133,-77,133000
6850000,-2190,804,454,289,998,-20300,-1737,-8643,-5635,3977,11999,-3159,-119,585,120,45,193000
6901000,-2365,424,455,7,1187,-742168,724,58,-25,1165,-3393,2046,-2906,12837,3515,8280,-160
7001000,-2053,934,-454,-108,1429,268,4487,-3089,10775,5200,7799,-199,-39,611,174,114,174000
7050000,-1538,964,-461,194,1926,3137,1985,-1868,7545,5375,7799,-240,-39,613,199,203,140000
7101000,-1125,421,123,-82,1444,3137,-32865,-2479,5149,1985,77201000,-379,473,-254,198,798,-5346
7250000,-291,-23,198,153,1809,2893,-12113,389,533,-1065,7440,-199,-160,604,173,85,232000
7301000,59,-133,168,-399,-711,7836,-10770,-1380,-1042,-1706,7440,-119,-160,605,175,-283,175000
7350000,-95,-451,-517,-465,-1279,-8764,-7108,-380,-160,607,212,41,212000,,,,
7450000,-437,-426,-237,-419,-501,-1806,-15531,-831,2078,-3640,6840,-80,-199,607,264,140,248000
7501000,-625,16,-130,-204,-73,-4797,6196,1854,2706,-2231,6840,-160,-399,607,269,-27,269000
7550000,-621,-36,660,206,1255,268,-16691,-953,2915,-7887,6960,-119,-1319,607,291,131,289000
7601000,-724,264,817,25,1206,-1440,20479,-1075,3513,-8926,6719,-119,-1799,607,270,284,270000
7650000,-779,766,263,-146,32,2526,-13212,999,4068,-9962,6360,-80,-2480,607,266,0,244000
7701000,-812,619,-301,102,777,-5834,9004,511,4255,-14765,6000,-80,-3159,606,225,-105,225000
7750000,-836,1383,519,134,861,-1379,12178,-1563,4167,-10328,4920,-119,-3159,606,279,9,326000
7801000,-697,1486,647,520,929,-3149,18403,1243,3588,-9497,3840,-80,-3120,606,302,238,302000
7850000,-555,1777,390,-88,1178,3137,13704,84,2530,-3152,3240,-119,-2320,607,307,165,296000
7901000,-422,2080,-223,107,1418,-463,8943,3624,1989,5120,2879,-80,-1200,608,345,397,345000
7950000,-382,2101,-643,-100,1287,-1806,6135,-1014,1756,11051,2760,-80,-199,606,365,141,376000
8001000,-339,1930,-446,50,1348,-3515,9004,5455,1506,10061,2640,-80,-199,606,362,162,362000
8050000,-256,1992,239,365,1803,-1806,17244,7042,1028,10652,2760,-80,-160,606,335,62,393000
8101000,-112,1684,201,-53,1757,1733,-5277,3197,189,8864,2879,-80,-160,607,391,332,391000
8150000,-158,1597,-505,-239,1221,-3149,14131,1304,456,7890,2760,-80,-240,607,370,317,415000
8201000,-277,1397,-505,-459,591,2526,-29020,2159,916,6959,3359,-119,-199,606,413,253,413000
8250000,-247,791,-115,-37,1380,-4797,5891,4417,976,3205,5760,-80,-237,1590,27,106,1915
8450000,-272,2279,515,326,1926,1245,-1005,-12000,883,12319,20640,-119,-160,607,476,-117,425000
8501000,-551,2412,-383,-109,339,-2416,-2592,-8948,2738,12859,20880,-80,-199,607,467,82,467000
8550000,-587,2659,-82,59,595,-524,8272,-13282,2947,14297,24360,-80,-199,607,432,71,508000
8601000,-506,1873,746,84,1926,5273,-20292,-16334,2246,9728,26640,-119,-199,607,470,453,470000
8650000,-536,1367,314,-89,524,4113,1314,-16456,2653,6786,26640,-80,-199,607,490,-70,491000
8701000,-605,1513,718,332,1549,1794,7844,-17860,3052,7636,28200,-80,-199,609,519,374,519000
8750000,-381,647,-299,156,553,8630,-12113,-21583,1751,2367,28080,-80,-240,608,500,249,499000
8801000,-131,231,-253,-299,-768,7714,-5033,-21033,300,-5859,14400,-80,-1239,607,523,11,523000
8850000,-81,476,-226,-290,-530,4724,-6193,-11390,2100,-14203,1799,280,-2920,605,479,-238,501000
8901000,113,213,264,-206,1439,9973,7417,-6202,6315,-24335,240,1199,-4400,605,552,485,527000
8950000,308,814,89,336,1926,10522,25972,-2174,5647,-28513,240,1280,-5720,605,512,84,495000
9001000,553,1035,148,101,-546,5578,5281,572,4220,-27227,359,1280,-5720,605,545,-428,545000
9050000,698,1524,-48,97,1205,10705,35432,-1075,-4522,-19040,359,-80,-4800,604,572,-257,560000
9101000,884,2370,-593,-3,1926,9484,16817,-98,-5840,-11101,240,-119,-4279,604,536,-24,536000
9150000,851,2413,-870,48,649,939,12910,2952,-5647,-7829,240,-119,-3760,605,510,139,538000
9201000,750,3109,-662,-468,-633,8996,6929,3197,-5289,-2153,240,-160,-3480,605,539,-458,539000
9250000,628,2801,-377,-207,1281,1367,337,23,-4115,-2081,359,-80,-3159,605,512,-554,512000
9301000,323,2717,-149,-103,1278,4113,18892,1121,-2577,-2572,240,-119,-3159,605,518,-107,518000
9350000,325,2724,-458,-299,804,8813,-6010,3624,-2590,-2531,359,-119,-3159,606,549,19,523000
9401000,223,2400,254,27,395,-1013,10713,7835,-1761,-4646,240,-80,-3200,605,558,-35,558000
9450000,106,2233,108,49,649,2526,4854,3380,-1084,-5620,2160,-80,-3200,607,515,-282,520000
9501000,132,2177,573,197,1310,1977,19380,1976,-1467,-5476,6719,-119,-3120,606,529,187,529000
9550000,34,2476,-219,38,349,1611,8150,511,-668,-3972,7079,-80,-3159,608,505,-95,548000
9601000,-94,2121,-810,-428,138,1245,-12479,3685,-149,-6037,6600,-119,-3159,608,535,-215,535000
9650000,-228,2623,-36,-110,1588,-4980,21089,4051,630,-2655,5639,-119,-3079,614,545,96,511000
9701000,-225,2527,-286,-265,771,8264,-18522,1121,615,-3445,2519,-119,-3120,627,513,-65,513000
9750000,-203,2238,-387,-353,261,1611,9797,7347,718,-5357,2400,-80,-3159,628,518,-293,536000
9801000,-365,2915,455,100,1926,-97,7051,4967,1657,-2120,2400,-80,-3279,628,501,-83,502000
9850000,-192,2853,458,-86,1926,7409,520,1488,654,-2713,2400,-80,-3320,628,559,-393,504000
9901000,-329,3473,314,28,1926,-2661,18220,7042,1450,1357,2279,-80,-3240,628,514,-129,514000
9950000,-352,3236,294,-206,639,10522,-13761,816,1352,2304,2400,-119,-2840,630,476,-469,498000
10001000,-199,3024,-177,35,1534,1855,17732,3868,696,7583,1920,-80,-1720,630,555,74,555000
10050000,-260,3216,722,285,1926,3564,-3507,4173,1046,17532,839,-80,-199,632,525,-291,508000
10101000,-146,1853,-195,62,-44,6433,-16691,10765,388,15889,1320,-80,880,636,474,-440,474000
10150000,-83,1870,354,-64,1242,756,9614,4722,22,25518,1439,-80,2520,643,463,-529,487000
10201000,-93,1036,267,215,1926,634,-30424,7591,78,20205,1320,-80,2439,645,536,0,536000
10250000,-25,714,91,67,709,3076,-7169,6859,-547,11127,1320,-119,1199,645,486,-472,487000
10301000,-178,1057,-36,-351,-63,-3576,-24259,2769,569,8005,1320,-80,320,644,505,-243,494000
10350000,-269,506,-236,-77,916,-891,-25968,6187,1099,2713,1320,-80,-39,644,534,-162,530000
10401000,-345,619,472,-153,1337,-4919,-9733,5150,1309,3135,1320,-119,-80,646,548,70,548000
10450000,-480,84,-742,-364,-471,-2355,-31644,3135,2328,24,1439,-80,-80,646,505,-28,536000
10501000,-569,355,163,277,1926,-5346,15108,6737,2843,1598,1439,-80,-80,644,522,-44,522000
10550000,-640,414,-591,50,-436,-5651,-16569,8507,2560,1476,1439,-199,-160,645,518,6,525000
10601000,-707,323,-617,75,-481,-7177,-1981,3929,2949,-1376,1439,-199,-559,645,543,-318,543000
10650000,-763,1020,132,316,1337,-11328,4609,4539,3272,-2904,1439,-199,-1519,644,535,155,508000
10701000,-720,712,-279,67,1525,-6323,-20597,7713,3026,-7718,1560,-199,-2040,645,569,60,569000
10750000,-787,1060,608,-68,1926,-6994,13887,206,3415,-5925,1799,-199,-2079,644,543,31,548000
10801000,-576,1121,758,-33,1926,939,-19987,1549,2886,-3011,1799,-80,-1640,645,561,184,561000
10850000,-443,733,-386,-254,179,4357,-4850,3990,1878,-4338,480,-119,-1480,644,567,-452,578000
10901000,-487,1724,211,291,844,-5346,3938,6065,2138,1887,359,-119,-1399,644,596,50,596000
10950000,-411,1388,-58,-22,858,1916,-27128,8079,1927,-297,359,-80,-1440,643,598,150,611000
11001000,-386,1561,-251,-238,51,-4431,5647,7835,1550,474,359,-119,-1480,643,622,-79,638000
11050000,-348,1519,345,-96,1743,2282,-22550,1549,1562,-234,240,-80,-1560,640,635,23,632000
11101000,-172,824,-750,-162,401,3564,-9183,5394,304,-6137,359,-119,-1879,637,667,260,667000
11150000,-157,1161,608,364,1926,-2478,13399,5760,450,-10223,240,-80,-2920,630,679,310,677000
11201000,-113,942,-76,157,1926,2893,-6254,5577,193,-19398,359,-80,-4279,623,684,352,684000
11250000,14,1598,-54,133,1367,6494,16939,6859,-551,-21865,240,-80,-5360,614,732,145,732000
11301000,9,2471,795,-16,1909,6433,7722,3258,-521,-17719,359,-80,-5520,613,743,542,743000
11350000,18,2699,-112,-381,-988,10888,-455,4783,-806,-13603,240,-119,-5039,613,772,302,782000
11401000,-64,3422,-112,114,1822,5761,14192,5333,-89,-5451,240,-80,-4359,613,795,691,795000
11450000,-200,3499,697,177,1926,1550,3450,1060,468,1043,240,-119,-3320,613,777,-121,829000
11501000,-401,3323,313,-156,1622,5761,6318,3624,1871,6996,240,-80,-2120,612,829,429,829000
11550000,-328,3479,-161,-262,1391,7958,-4057,5028,1214,15576,240,-119,-800,612,838,197,856000
11601000,-340,2725,106,266,1926,-4736,-6620,6370,1512,13052,359,-80,-479,613,851,256,851000
11650000,-183,2513,884,200,1926,4296,2962,1610,602,9028,240,-80,-959,612,881,310,857000
11701000,7,1763,564,40,1823,5273,-18766,3502,-743,1881,359,-119,-1440,613,859,-19,859000
11750000,153,1213,71,-113,1233,5273,-9183,3624,-1356,-10384,359,-80,-2999,613,891,176,907000
11801000,278,1332,628,183,871,-219,10103,3990,-3946,-15270,240,-399,-3960,612,914,169,914000
11850000,187,1656,653,174,1111,-2294,20906,755,-9229,-17577,240,-1399,-4680,612,929,-239,931000
11901000,-82,2445,458,-92,99,-2600,23713,5760,-11845,-14382,240,-2120,-4920,612,931,22,931000
11950000,-277,3209,361,-128,253,-9008,17183,4722,-10474,-12266,240,-2079,-5319,612,915,-278,918000
12001000,-664,3726,-564,11,1921,-15295,24995,5211,-8228,-11354,240,-2079,-5679,613,935,132,935000
12050000,-733,4550,-388,219,1926,-13342,35615,6553,-8291,-7728,359,-2159,-5880,613,934,175,940000
12101000,-980,4519,-158,70,1273,-17248,4915,8751,-8481,-6981,240,-2439,-5720,613,929,-136,932000
12150000,-1351,4780,-364,-111,867,-14196,31770,5394,-7259,4771,359,-2600,-3960,613,931,-124,927000
12201000,-1441,5092,280,-180,1872,-10534,9248,6553,1637,12626,240,-1160,-2920,613,939,211,939000
12250000,-1339,4361,-15,-13,1633,-9008,3755,10521,7319,21863,240,-80,-599,614,938,-436,942000
12301000,-1104,4631,603,128,1717,-1623,19807,7591,5956,26224,240,-80,-119,613,941,-63,941000
12350000,-759,3584,610,331,1926,1672,-11198,2464,3719,20605,240,-119,-39,615,938,-333,942000
12401000,-592,2423,-228,225,1926,-585,9309,6187,2978,13622,240,-80,-80,614,931,-179,931000
12450000,-223,2770,-406,107,1262,6555,5403,6309,603,15641,240,-119,-80,615,942,-389,932000
12501000,110,1866,-487,-46,1667,-4614,-16569,6126,-1338,10150,240,-119,-119,614,942,-264,942000
12550000,-4,1973,-32,348,1926,-8215,25728,7347,-5319,10774,359,-920,-119,614,944,-114,934000
12601000,134,1972,-100,-40,990,2282,-16996,3929,-8223,11001,240,-1280,-80,614,932,-222,932000
12650000,137,1399,-146,62,1576,-4492,-150,7591,-9868,7440,359,-1560,-119,614,919,-174,908000
12701000,21,1749,-872,-199,493,-2172,-12907,5699,-8493,9473,480,-1440,-119,615,922,-342,922000
12750000,234,1144,-564,-98,1579,878,-17301,3563,-9733,5957,359,-1440,-119,614,907,-118,905000
12801000,468,724,573,-43,186,2038,-6803,3319,-14114,3745,959,-1959,-80,614,891,-421,891000
12850000,455,623,-162,-366,-466,-4980,-13029,4051,-39847,3393,1080,-6399,-39,615,916,-586,897000
12901000,185,666,15,-295,16,-4187,-12174,1671,-49671,3639,1320,-8360,-39,615,885,-417,885000
12950000,-554,459,143,-96,1926,-23413,-12785,-3760,-45373,2204,1439,-8360,-80,615,892,-541,870000
13001000,-1541,291,372,226,810,-23779,-24503,633,-24287,996,1199,-5720,-119,614,863,-671,863000
13050000,-1674,-114,75,102,404,-9863,-24808,-1441,-12355,-1365,1320,-3800,-119,614,881,-471,838000
13101000,-1856,286,507,-17,1432,-17370,5708,-1868,9164,735,1320,-279,-160,615,844,-200,844000
13150000,-1947,233,-157,-389,1405,3991,-30546,-3883,10624,424,1199,-119,-160,615,827,-479,864000
13201000,-1204,-17,-641,-582,1013,11376,-11747,-953,6301,-798,839,-119,-119,614,785,-203,785000
13250000,-783,464,-358,23,1718,1306,-12785,-4188,4091,1537,839,-80,-199,614,794,-142,806000
13301000,-547,289,134,-169,-1113,2343,-17545,-4676,2718,986,1920,-80,-119,615,781,-828,781000
13350000,-284,434,80,40,740,6494,6685,-6690,1188,2059,2160,-80,-80,615,754,-768,767000
13401000,33,573,-138,174,1926,10522,-12785,-3699,-660,1940,6239,-80,-240,615,739,-425,739000
13450000,257,502,-388,177,1131,4968,-3385,-4798,-1962,826,6360,-80,-360,615,730,-188,709000
13501000,329,826,-278,44,873,5212,-5521,-6263,-2614,1784,6840,-119,-520,615,691,-314,691000
13550000,206,587,233,321,1926,-4919,3633,-3760,-1895,856,7079,-119,-440,626,675,-238,690000
13601000,131,1033,947,454,1926,1916,13765,-6080,-1231,2751,3719,-80,-559,643,630,-870,630000
13650000,223,1226,269,52,438,6494,7783,-3211,-1763,2942,2279,-80,-720,649,636,-538,639000
13701000,439,1532,-519,31,1310,10400,23652,1243,-3020,2865,2519,-80,-1039,650,602,-389,602000
13750000,460,2339,106,367,1926,1916,22554,-709,-3139,580,2400,-80,-2239,650,592,-412,600000
13801000,452,2000,-212,84,1926,8813,-4545,-1807,-3096,-10458,2400,-80,-3800,649,587,-523,587000
13850000,550,2693,465,44,1926,7226,36287,-2540,-3900,-15498,2400,-119,-5360,649,579,-130,562000
13901000,501,3164,1021,-12,1389,4785,7905,-4920,-3382,-12759,839,-80,-5360,650,526,-369,526000
13950000,341,2940,-211,-371,-409,10217,20234,-526,-2216,-11507,359,-39,-4920,650,523,-556,495000
14001000,301,4250,-32,309,1926,6982,38484,999,-1987,2853,359,-39,-3760,650,480,-269,480000
14050000,382,3809,-319,118,1367,11315,-3812,2708,13355,10518,240,2679,-2000,649,476,-322,487000
14101000,340,3745,162,149,851,7104,19380,2769,14992,13863,240,2920,-1360,649,443,-735,443000
14150000,471,3673,699,88,1558,17846,1314,-709,14231,13216,240,2920,-1399,649,450,-449,433000
14201000,709,2879,221,-156,160,16687,-2653,2708,9362,8602,240,2320,-1399,648,404,-469,404000
14250000,757,2688,186,-348,259,11193,5586,-1563,-1843,8185,240,439,-1280,648,381,-742,404000
14301000,447,1791,-270,-207,1077,10400,-11198,3441,-975,5067,359,280,-920,649,434,-186,434000
14350000,237,1715,52,-215,1926,9362,3145,3502,6989,5784,240,1440,-720,650,433,-442,415000
14401000,-41,1296,-699,-437,136,8447,-22855,1549,16749,558,359,2839,-1200,649,451,-203,451000
14450000,123,1336,209,-102,1339,18762,13276,4356,24158,5213,359,4279,-440,649,368,-444,382000
14501000,429,1888,-51,-267,1469,14550,-14738,4783,22383,9583,240,4279,-240,649,387,-73,387000
14550000,634,1321,166,-147,1629,16198,-13578,4906,20958,6516,240,4240,-199,649,381,-58,311000
14601000,834,1660,-685,-163,240,11804,2534,8201,20959,8489,240,4440,-199,650,342,-312,342000
14650000,832,1182,-111,-36,1105,7531,-21696,9056,23757,5946,240,4920,-160,650,430,134,441000
14701000,848,933,-116,-357,1014,11560,-2836,5455,21344,4266,359,4519,5000,,,,
14801000,573,407,-407,-435,-1073,10217,-13395,6187,19687,1441,240,3959,-160,650,416,65,416000
14850000,671,455,-213,-52,1761,8630,-11930,7530,3072,1948,240,1199,-119,650,418,-6,414000
14901000,451,609,444,-128,1926,3869,-14860,5760,-2623,2847,359,0,-119,649,420,188,420000
14950000,186,877,337,-23,1207,3503,-10343,4478,-1547,4405,240,-80,-119,648,427,-75,412000
15001000,-323,1632,41,-382,622,-3576,-2714,7042,1413,9023,240,-80,-80,649,426,117,426000
15050000,-597,1783,520,0,367,5395,-17118,6431,3006,9436,240,-80,-160,649,397,-289,420000
15101000,-763,2026,75,154,1033,-5712,6196,7835,3972,7593,240,-80,-720,649,449,-58,449000
15150000,-1007,2423,223,18,1620,-3820,-8573,8385,5393,8739,359,-80,-920,650,445,265,467000
15201000,-1122,2063,447,183,1926,-3881,-2958,6614,5829,5719,240,-119,-1080,648,475,12,475000
15250000,-1470,2358,463,33,1926,-8459,8455,4967,7852,5574,359,-119,-1399,648,500,283,538000
15301000,-1556,2016,172,353,1926,-6384,-7658,4234,8349,-836,240,-119,-2159,648,546,418,546000
15350000,-1605,2258,-341,27,149,-3759,12727,7286,8866,-7333,240,-80,-3520,648,523,-64,480000
15401000,-1565,2611,685,165,1458,-4248,-4972,2952,4219,-5050,240,-839,-3480,649,549,205,549000
15450000,-1409,2241,285,-172,417,1428,-3568,1060,-2734,-4176,359,-1879,-2960,649,501,-32,527000
15501000,-1321,2130,-45,-123,93,-7177,-639,2708,-3709,-3659,240,-1959,-2760,648,558,28,558000
15550000,-1354,1686,430,-42,1277,-6018,-13578,694,-5148,-4380,359,-2239,-2439,648,537,200,528000
15601000,-1204,1785,-32,-74,635,-4248,6441,-3455,-5785,-4039,240,-2200,-2480,648,541,-48,541000
15650000,-1272,1856,-663,114,1224,-10473,-14921,2952,885,-3857,359,-1119,-2519,648,531,-56,550000
15701000,-1175,1536,-394,78,-571,1184,-1554,206,5206,-6648,359,-279,-2680,649,575,-387,575000
15750000,-923,1914,254,327,1926,-5285,6868,23,4205,-5609,240,-199,-2879,649,519,-181,552000
15801000,-858,1309,-29,-22,713,878,-13822,2403,3829,-11685,359,-199,-3320,649,560,-196,560000
15850000,-735,1772,-178,10,1674,-2966,23469,-465,-372,-15037,240,-800,-4359,647,550,-3,567000
15901000,-666,2055,94,-215,-508,-1867,-3141,-2235,-2634,-17579,240,-1119,-5080,649,558,-416,558000
15950000,-716,2250,351,46,115,-6811,25972,-3455,-6298,-18769,240,-1799,-5479,647,583,23,587000
16001000,-845,2947,-218,130,205,-6079,7844,511,-6708,-14722,240,-2000,-5479,648,585,39,585000
16050000,-840,2753,240,-3,1281,-9802,10530,-2784,-8134,-15383,240,-2239,-5399,648,580,142,573000
16101000,-1000,3378,236,-180,384,-4187,20906,-2723,-3019,-10354,240,-1519,-5160,648,610,78,610000
16150000,-826,3040,297,-39,538,-280,6746,-5042,-3798,-7203,240,-1000,-775,3500,-286,28,7
16250000,-638,3359,-185,-4,913,-708,-5704,-1868,-14658,4645,240,-3159,-2560,648,645,34,648000
16301000,-889,2778,0,113,1226,-15478,8699,-2662,-24588,6615,240,-5120,-1640,648,647,-48,647000
16350000,-1235,2922,515,-33,1699,-16271,-2836,-3089,-25135,11872,119,-5560,-880,648,673,340,677000
16401000,-1632,2059,318,-11,976,-19506,-6498,-4371,-28874,10809,240,-6599,-199,648,683,92,683000
16450000,-2146,2031,-131,-18,-413,-26342,703,-98,-27047,11343,359,-6799,-80,649,699,166,723000
16501000,-2551,1301,-321,-14,-355,-17126,-12174,-1197,-18650,6868,240,-5759,-119,648,771,136,771000
16550000,-2891,1339,-117,-47,73,-26525,4243,84,-3188,6857,240,-3439,-160,648,770,344,767000
16601000,-3076,845,570,163,1228,-17797,-12662,-1075,9279,1424,240,-1480,-599,649,795,421,795000
16650000,-2827,987,510,89,880,-9497,16633,-281,10852,-1236,359,-959,-1200,649,800,332,788000
16701000,-2415,1128,211,-86,1247,-4492,-9183,-1075,12646,-2042,359,-240,-1480,649,810,461,810000
16750000,-2131,1208,82,197,796,-3637,11873,-220,11927,-5528,240,-80,-2159,647,837,260,864000
16801000,-1878,1491,-281,39,62,-5102,-1554,633,10223,-5980,240,-119,-2519,647,862,409,862000
16850000,-1523,1630,31,-33,152,-7910,9248,755,8159,-13543,240,-119,-3960,635,866,315,894000
16901000,-1270,2293,-55,-98,508,-2233,8699,755,6918,-14803,240,-80,-4839,629,898,371,898000
16950000,-1030,2014,184,190,515,-7666,1741,-1624,5522,-21075,359,-80,-5640,620,920,572,936000
17001000,-958,2701,775,141,1761,-10778,43062,2769,4871,-17543,240,-119,-5720,616,964,597,964000
17050000,-789,2987,813,380,1409,-2722,11812,-98,4126,-13326,359,-80,-5279,612,961,437,966000
17101000,-480,2552,-186,309,861,-1501,16572,2098,2328,-9578,240,-80,-4200,611,969,204,969000
17150000,-321,3159,240,351,1530,5273,17305,2098,1169,3021,359,-119,-2640,611,973,180,958000
17201000,39,2826,725,429,1555,-402,10530,4173,-693,10619,240,-80,-1000,615,988,187,988000
17250000,167,2555,460,118,1020,1245,5586,3807,-1673,13694,359,-119,-199,617,1014,141,997000
17301000,332,2108,-344,-73,1416,1367,-3873,4417,-2630,11561,240,-119,-119,616,1020,292,1020000
17350000,460,1833,-326,-563,-83,-3515,2962,2525,-3375,10191,240,-119,-80,618,1031,-26,1030000
17401000,487,1314,-444,-406,176,8447,-22977,4417,-3298,7405,240,-80,-39,618,1033,152,1033000
17450000,459,1023,260,-131,1075,4846,6807,5699,-2906,5248,240,-39,-119,625,1038,-174,1043000
17501000,334,1261,-225,271,1926,6494,-1066,1365,-2407,6634,240,-80,-119,626,1066,74,1066000
17550000,434,966,240,191,1926,13085,-7413,2281,-2991,4922,240,-80,-119,629,1061,171,1059000
17601000,338,1000,-474,-172,1920,-3332,2656,3135,-2432,5117,359,-80,-119,631,1045,-199,1030000
17650000,127,1550,-1005,-311,259,4602,-10038,4906,8793,7619,240,1640,-240,630,1032,-150,1038000
17701000,380,1461,153,-7,1598,10827,-8390,6614,15459,2219,359,3039,-1080,629,1081,292,1081000
17750000,611,1858,396,220,1926,14550,11140,5455,35975,5685,240,6800,-880,630,1037,208,1045000
17801000,1268,2753,729,373,1926,29565,1008,3197,37266,9728,359,7679,-1080,630,1038,12,1038000
17850000,2245,2798,-255,-22,1670,39147,-9733,4967,44612,2083,359,9920,-2439,629,1034,-229,1046000
17901000,3119,3079,-1017,-229,18,33776,15108,5577,33717,1856,359,8920,-2760,630,1021,-441,1022000
17950000,3857,3340,130,429,1926,43176,1741,6004,9666,6165,240,5520,-2280,629,1021,-416,1018000
18001000,4254,2643,-104,-197,1128,27673,-24015,6492,-15664,11643,240,1559,-640,630,1016,-326,1018000
18050000,3774,2494,-503,20,585,8752,-4789,10216,-22170,13802,359,-39,-119,631,1008,20,1020000
18101000,3217,1862,-189,-5,1480,10827,-27311,2159,-19165,10129,359,-80,-119,631,1010,-492,1010000
18150000,2569,882,-356,-108,-68,1184,-17362,9910,-15403,4432,240,-80,-119,630,1021,-333,1022000
18201000,1814,1012,421,-170,-550,11804,-5949,7530,-11012,5420,240,-80,-80,630,1008,-688,1008000
18250000,1374,237,138,-426,-481,4907,-24015,2037,-8457,916,240,-80,-80,630,1021,-735,1020000
18301000,412,106,184,-318,-531,-1501,-516,7225,-3095,-78,240,-119,-119,630,1008,-536,1008000
18350000,103,-112,526,-157,-32,9729,-20536,1854,-1067,-1584,359,-80,-160,630,1024,-650,1010000
18401000,-464,-267,299,126,1917,329,2717,5638,2237,-2484,240,-80,-160,630,1024,-151,1024000
18450000,-816,444,-3,0,511,8630,-11747,8629,4280,1190,359,-80,-240,630,1033,-623,1015000
18501000,-899,339,888,55,1632,85,-3751,4844,4532,-1279,359,-119,-559,630,1027,-165,1027000
18550000,-1055,842,24,-178,213,4724,-211,6614,5669,-7193,359,-80,-2079,630,1018,-392,1035000
18601000,-966,658,-519,128,1644,695,-8756,9849,5152,-12915,240,-80,-2879,629,1026,23,1026000
18650000,-1015,1003,611,413,1838,-2844,20784,9910,5436,-12766,359,-80,-3200,629,1032,-195,1034000
18701000,-954,876,156,97,538,2160,-2592,8140,5082,-12108,359,-80,-2960,629,1030,17,1030000
18750000,-813,781,-226,129,679,-4553,8088,9117,4034,-10567,359,-119,-2600,630,1034,64,1038000
18801000,-894,1014,-501,-214,-277,-4064,-2897,6859,4733,-7123,359,-80,-2239,630,1039,-388,1039000
18850000,-899,698,-7,-39,172,-5468,9981,6370,2205,-7099,359,-520,-1920,629,1041,57,1028000
18901000,-816,720,-605,-252,-994,-830,-6437,6126,-1999,-5579,359,-1160,-1679,629,1036,-220,1036000
18950000,-979,496,-385,-262,-104,-11999,-6742,7164,-815,-5482,359,-1119,-1440,629,1037,-246,1038000
19001000,-1182,1023,-114,-77,-246,-3759,16633,8323,1524,-795,240,-920,-1160,631,1018,-570,1018000
19050000,-1053,1204,436,457,1926,-9130,2046,4173,1940,954,240,-720,-1039,631,1028,-151,1045000
19101000,-1222,1504,331,260,1926,-11022,15962,6859,5012,2934,240,-360,-1000,630,1045,-276,1045000
19150000,-1204,2129,-368,-29,1731,-2661,5525,6614,5608,7494,240,-240,-839,631,1026,-248,1019000
19201000,-1049,1809,-282,-351,-49,-7299,-16935,5272,4705,7495,240,-240,-520,630,1025,-582,1025000
19250000,-1121,2170,-91,-237,1367,-10900,16817,7164,4892,11454,359,-279,-199,630,1003,-184,1016000
19301000,-768,2151,121,-78,1447,5700,-17667,2525,2841,11108,359,-279,-240,631,998,-108,998000
19350000,-537,1735,-191,-505,-520,-2844,-3507,6065,1729,8693,1799,-240,-240,630,1015,-327,1034000
19401000,-582,2147,130,-15,1245,1733,4182,2952,1991,10854,7440,-240,-279,630,1016,-21,1017000
19450000,-131,1679,135,270,1314,1489,-5216,-98,-630,8370,12240,-240,-240,631,1011,-356,1012000
19501000,0,1625,375,197,1296,-6872,16511,-2906,-925,8053,21720,-160,-240,631,1024,-89,1024000
19550000,142,2073,-784,127,680,146,2351,-6873,-1756,10659,29040,-160,-240,633,1035,107,1030000
19601000,418,1505,522,272,1926,-2905,-10770,-16273,-3133,7355,33480,-119,-240,633,997,56,997000
19650000,174,1394,-573,-5,2,-4980,8577,-22437,-1712,6711,39360,-119,-240,632,1019,-254,1014000
19701000,138,1507,-107,-87,857,-2111,-5338,-25794,-1735,7368,42720,-160,-240,632,989,-358,989000
19750000,106,1287,181,43,1019,-5957,-3019,-29151,-1314,2370,42840,-119,-880,631,1016,-188,1009000
19801000,-24,1637,344,-92,1926,-1135,5403,-27930,-557,-1176,36960,-119,-1840,632,1021,-12,1022000
19850000,27,1784,-351,-305,-1272,2770,-1066,-27747,-1789,-6367,27960,-279,-2879,632,1010,-401,1027000
19901000,-165,2282,923,247,1403,-8642,12544,-19447,-6480,-12308,16080,-1280,-4400,632,1026,-126,1023000
19950000,-348,2349,674,286,1467,-7299,6990,-13404,-16109,-20519,7559,-3120,-5880,631,1001,-139,993000
20001000,-624,2771,121,236,980,-15051,29451,-3333,-14271,-21558,240,-3079,-6480,630,1011,-137,1011000
20050000,-1078,3468,563,445,1877,-13708,20051,1060,-11866,-17273,119,-3120,-6440,630,998,-585,1003000
20101000,-1390,3368,600,266,1926,-11633,16450,2830,-2610,-14829,359,-1840,-5920,631,1000,-19,1000000
20150000,-1606,3733,285,21,1067,-4492,18464,877,8172,-1548,240,-199,-3999,630,1011,-199,988000
20201000,-1459,3028,-112,201,1926,-8825,9370,2891,7320,1326,240,-199,-2799,630,1002,32,1002000
20250000,-1291,2818,-307,62,1714,-1318,10713,4234,7039,3129,240,-80,-2280,631,1001,-577,1000000
20301000,-1113,2781,-612,-152,-691,-5468,-3263,4295,6005,2447,240,-80,-2359,631,1006,-438,1006000
20350000,-959,2970,-538,107,-4,-6567,11690,6309,5112,2388,359,-80,-2560,631,992,-428,980000
20401000,-608,2815,-205,-297,-363,7165,-21635,3990,2840,-1073,3119,-119,-2999,630,1011,-584,1012000
20450000,-447,2338,336,-197,-384,-3576,5525,2159,2134,-4776,3119,-80,-3159,632,996,-403,988000
20501000,-394,2698,86,-92,430,3686,2717,1304,1827,-3378,3359,-80,-3279,632,958,-360,977000
20550000,-144,2563,-36,-266,876,4113,-19865,2708,374,-5792,3600,-80,-3559,632,1003,-282,976000
20601000,-191,3061,-192,159,1108,-3759,13093,6126,413,-3129,3359,-119,-3600,631,958,-313,958000
20650000,-30,3255,222,249,1926,1977,-2714,1365,-289,-1070,3359,-80,-3439,633,967,-66,963000
20701000,178,2471,745,462,1926,-2233,9065,4722,-1733,-4700,5279,-119,-3279,633,950,-342,950000
20750000,252,2412,-35,124,1079,5029,9553,3013,-2163,-3879,7200,-119,-3079,633,933,-494,948000
20801000,490,1465,-557,-273,-512,2160,-15592,267,-3317,-9618,19680,-80,-3120,634,936,-684,936000
20850000,330,1249,-160,-156,-273,-5285,11873,-7728,-2386,-10410,22560,-80,-3040,635,924,-241,915000
20901000,562,1216,-456,-399,-4,11376,-14371,-12977,-3965,-10135,25079,-119,-2960,648,936,-305,936000
20950000,527,1127,897,157,1926,-3820,12239,-13709,-3765,-10184,33360,-119,-2879,650,924,-441,898000
21001000,331,1733,-567,-236,-154,3991,12971,-17677,-2391,-5502,37559,-80,-2680,649,921,-653,921000
21050000,578,1844,72,8,1842,2893,-11076,-22315,-3826,-4392,40320,-80,-2600,648,892,-256,905000
21101000,606,1670,137,-131,38,3015,-2470,-28358,-3991,-4937,46080,-80,-2519,648,889,-350,889000
21150000,788,1668,339,103,1823,7165,-3324,-31348,-5048,-4719,48600,-80,-2480,649,912,-384,897000
21201000,705,1607,41,41,1745,-3759,-2164,-32020,-4568,-5068,50880,-80,-2480,648,877,-386,877000
21250000,726,1712,-188,-472,-721,8020,-4789,-36475,-4686,-1673,50880,-80,-2000,647,885,-397,877000
21301000,838,1426,659,96,1926,2526,-6254,-35316,-5339,-545,51960,-80,-1519,648,852,-281,852000
21350000,687,1054,384,348,1406,2648,703,-39466,-4461,1016,57600,-80,-880,649,862,-284,852000
21401000,709,843,-104,-311,-327,2587,-13029,-41114,-4586,1880,57720,-80,-520,647,855,-517,855000
21450000,551,854,677,125,1926,1367,-4728,-41236,-3673,3570,56160,-80,-240,648,831,-180,840000
21501000,598,958,137,128,265,7104,-578,-41663,-3946,4178,43680,-80,-240,647,854,-90,854000
21550000,610,887,159,141,827,-97,-5949,-37025,-4011,3994,36240,-80,-199,648,856,-167,857000
21601000,554,880,-923,-196,-1142,3381,-7474,-25611,-3690,3724,27359,-80,-240,648,866,-530,851000
21650000,558,1473,-231,126,1077,-3210,398,-20667,-3713,6241,18840,-80,-399,646,850,-117,848000
21701000,650,1384,608,366,698,3137,-89,-12916,-4244,4791,240,-80,-559,646,828,-601,828000
21750000,773,1691,306,-316,113,8081,-1737,-648,-4960,5648,240,-80,-720,645,855,-449,844000
21801000,812,1744,55,-240,1926,3198,-8146,-4066,-5187,6188,240,-80,-679,645,851,-14,851000
21850000,771,1778,-436,-494,1027,-1379,4793,-953,-4951,8243,240,-80,-360,646,848,-165,866000
21901000,609,1717,-619,129,1166,-2905,-15165,2464,-4010,8820,240,-80,-199,646,867,-156,867000
21950000,554,1383,31,362,1926,-1135,-28,6248,-3453,7342,359,-39,-119,646,878,161,858000
22001000,366,1737,-106,9,-220,-1074,-11320,3319,-2128,9167,240,0,-160,645,854,-364,854000
22050000,205,1322,-572,150,-243,-1867,-12418,3563,-1428,6988,240,-39,-119,645,899,227,891000
22101000,117,1540,283,391,1926,-6140,14009,5638,-915,8256,240,-39,-119,645,889,-352,889000
22150000,3,1375,-191,154,1322,-524,-15958,8201,-250,7297,359,-39,-119,645,904,28,913000
22201000,-36,1136,-794,141,-722,-2905,1314,6004,-19,5442,119,-39,-199,645,907,-599,907000
22250000,-200,1567,-12,244,1926,2893,2107,5760,932,7714,359,-39,-240,645,924,-16,934000
22301000,-149,875,-570,24,654,573,-19804,9788,7611,-2348,359,1159,-1280,646,917,-335,917000
22350000,-203,1055,242,341,1926,-158,25545,10887,25129,-5491,359,4119,-2000,645,922,-120,921000
22401000,384,1387,-140,-185,1817,24682,-6803,6737,21948,-3559,359,4159,-2000,646,931,10,931000
22450000,924,1123,-680,-128,599,9423,13032,10765,19041,-6259,359,4200,-2200,646,934,-163,928000
22501000,1225,1494,-374,-127,394,19677,8760,8690,18684,-5261,359,4440,-2400,646,945,-65,945000
22550000,1923,1293,-1222,2,-1134,19494,-9916,10643,8348,-4803,359,3359,-2120,646,952,-131,971000
22601000,2164,1927,757,-42,1174,7226,13032,9178,-11186,2370,359,239,-1519,645,975,55,975000
22650000,1895,1807,-536,-373,-1137,-3698,-13517,7896,-11484,5859,240,-80,-800,645,960,-461,966000
22701000,1345,1656,745,1,1703,4296,4732,8323,-8287,5910,240,-80,-640,647,959,-263,959000
22750000,953,1573,230,15,842,1062,-7352,6920,-6008,5428,240,-80,-640,645,974,-462,983000
22801000,227,1376,757,178,1926,-7421,11506,9117,-5276,6376,359,-679,-279,646,981,-264,981000
22850000,-136,1177,-206,-53,1553,7409,-4789,7835,-8506,5681,4799,-1599,-199,645,990,-296,998000
22901000,-608,655,63,-21,1926,-12060,-11747,5638,-5763,2645,15720,-1599,-199,647,1003,-155,1003000
22950000,-1220,815,-81,-444,-370,-1501,3572,-1868,2443,3345,17039,-800,-240,646,1032,-364,1033000
23001000,-1116,930,639,173,1926,4113,-6132,-2235,5558,3782,24600,-160,-279,646,1045,16,1045000
23050000,-1252,503,-165,41,1317,-9863,-700,-10596,6814,1300,29279,-80,-279,647,1039,-30,1050000
23101000,-1319,552,521,64,1248,5883,2962,-13831,6971,1352,29880,-119,-319,648,1064,259,1064000
23150000,-1146,537,-256,185,1878,-5163,-3568,-12672,6196,1029,29760,-80,-360,647,1052,340,1064000
23201000,-1190,703,-500,-186,-286,-2905,-1127,-13587,6223,1298,24480,-119,-479,646,1092,80,1092000
23250000,-876,1095,117,-128,367,4418,-1859,-9986,4628,2414,17039,-80,-679,646,1077,-65,1083000
23301000,-744,1465,-759,-135,-185,-8642,8211,-3883,3861,4331,1439,-80,-720,647,1106,-192,1106000
23350000,-738,1656,-151,45,1926,-7543,1680,3746,3825,4746,240,-80,-839,646,1109,220,1115000
23401000,-564,1341,13,-78,1591,1428,-8634,7896,2813,2916,359,-80,-839,645,1143,200,1143000
23450000,-698,1658,-870,-105,-157,-7177,11506,8385,3363,2433,240,-119,-1239,646,1145,214,1136000
23501000,-690,1266,310,-66,1138,6677,-21085,7042,3547,-2638,240,-80,-1720,645,1150,299,1150000
23550000,-581,1020,521,-84,1531,-2172,20357,4661,122,-9411,240,-559,-2640,645,1170,-440,1173000
23601000,-690,2137,-455,-426,-780,-646,5464,9849,-1800,-4547,240,-1000,-2920,646,1179,-275,1179000
23650000,-387,2181,610,307,1926,-402,-1127,6859,-3558,-3825,359,-1000,-2840,646,1163,-266,1187000
23701000,-545,2481,61,266,1926,-15295,24324,9605,2008,-1854,359,-199,-2799,645,1198,6,1198000
23750000,-562,2738,-992,-93,578,207,-2103,8385,2805,9872,240,-80,-1039,645,1194,144,1206000
23801000,-311,2277,-98,-78,1136,-6140,-1371,10277,1344,13006,359,-80,-39,645,1218,57,1218000
23850000,-601,2400,-639,-370,-1282,-6628,-1981,8873,3030,13720,119,-80,-39,627,1247,-13,1237000
23900000,-429,2266,-63,-138,907,4052,-13029,9910,2031,12707,359,-80,-80,604,1256,94,1256000
23950000,-235,1593,138,278,1926,-9313,-2164,6920,901,8799,240,-80,-80,598,1266,493,1250000
24001000,-401,1081,-320,43,1926,-3454,-7780,8629,1635,5824,359,-119,-80,596,1282,50,1282000
24050000,-417,1018,-359,-406,515,3442,-15409,6370,1962,5222,240,-80,-119,577,1300,-37,1282000
24101000,-330,689,-824,-158,1482,-1013,-13578,7896,1453,3311,240,-80,-119,577,1310,176,1317000
24150000,-262,267,-685,-322,729,1184,-25663,6553,1060,854,359,-80,-119,576,1314,97,1318000
24201000,-128,-130,49,72,1317,-97,-13273,12047,280,-1453,240,-80,-119,577,1310,8,1310000
24250000,-14,-509,-638,87,1412,-5163,-8207,8323,-383,-4355,240,-80,-240,581,1331,212,1329000
24301000,80,-704,37,-47,-931,1672,-7658,8262,-933,-11538,240,-80,-1280,582,1348,-297,1348000
24350000,132,-835,-963,-270,-709,-2783,-3934,6859,-1236,-16948,359,-80,-2079,621,1325,-121,1330000
24401000,209,-503,-212,-289,224,1000,3816,8995,-1916,-20596,2879,-119,-3040,631,1316,-174,1316000
24450000,236,120,180,391,1740,-4614,21272,7713,-1841,-20687,2879,-80,-3680,650,1320,-351,1317000
24501000,88,991,24,-87,1271,-2722,10225,6004,-981,-21905,2400,-80,-4759,653,1294,-484,1294000
24550000,146,1952,271,-308,498,6188,21943,4844,-1314,-17948,240,-80,-5039,671,1277,-803,1280000
24601000,50,2637,-71,-257,-1068,329,3694,7347,-759,-13965,359,-80,-5039,670,1259,-757,1259000
24650000,121,2536,798,8,1848,4602,13154,4478,-1170,-12689,359,-80,-4720,671,1251,-711,1254000
24701000,58,3298,-60,41,713,-4492,26887,9178,-804,-3147,240,-80,-3839,670,1214,-704,1214000
24750000,120,3247,555,364,1926,4479,2962,6248,-1163,6090,359,-80,-2200,670,1215,-410,1210000
24801000,397,3073,310,8,1262,3259,19441,6614,-2778,9265,240,-80,-1480,669,1180,-430,1180000
24850000,428,3201,591,-95,1173,2526,1375,6737,-2953,13729,240,-80,-839,669,1190,-419,1186000
24901000,622,2315,567,212,1614,390,7844,8446,-4317,8575,240,-119,-839,670,1172,-176,1172000
24950000,637,2318,70,109,1302,1245,1253,7896,-4170,7432,359,-80,-1039,670,1172,51,1163000
25001000,686,1934,592,-252,1926,3625,-4850,877,-4456,4966,359,-80,-1080,670,1159,-126,1159000
25050000,592,1984,79,-163,-313,3320,1680,4844,-3910,5720,359,-80,-1000,669,1163,-215,1152000
25101000,542,1754,742,298,1926,695,947,2891,-3618,6248,359,-80,-679,669,1153,127,1153000
25150000,481,1512,-207,-72,214,3564,-6254,5272,-3265,7630,240,-80,-199,668,1152,-192,1149000
25201000,380,1396,572,-70,1926,-1745,-5094,3502,-2674,7186,5039,-80,-160,669,1165,22,1165000
25250000,335,913,-205,-283,853,5822,-25175,-1502,-2414,4382,12839,-80,-160,666,1157,-62,1154000
25301000,259,847,500,403,1926,-4736,5586,-5225,-2208,3994,19680,-119,-160,664,1174,255,1174000
25350000,288,783,-98,-142,240,5822,-9977,-12000,-2139,4090,24240,-80,-80,664,1165,-365,1154000
25401000,305,531,272,239,1926,-6445,-3934,-13160,-2241,2626,32040,-80,-80,665,1178,-280,1178000
25450000,133,730,237,503,1926,-646,3999,-21094,-1242,3782,33239,-80,-80,667,1179,-197,1186000
25501000,369,431,103,-184,213,451,-21635,-22437,-2380,1578,36480,-39,-160,669,1191,-251,1191000
25550000,275,518,-62,-92,510,-3515,-3934,-23780,-2065,2086,42120,-80,-160,668,1196,37,1204000
25601000,507,814,-247,-229,-431,5578,-15836,-32874,-3184,3806,42360,-39,-160,667,1215,-78,1215000
25650000,420,438,154,-318,-45,-5224,-15043,-33118,-3139,1156,39240,-119,-240,663,1223,-147,1239000
25701000,146,791,49,290,1926,-1013,4487,-23414,-1314,-3536,2160,-80,-1399,664,1249,271,1249000
25750000,281,671,650,-33,1926,4052,-2103,-10780,-2102,-17490,359,-80,-3680,664,1266,-203,1277000
25801000,282,1099,-31,-126,1386,3808,13521,-5836,-2106,-32206,240,-80,-6640,663,1287,216,1287000
25850000,221,1732,48,-137,1864,2465,4915,-2540,-1984,-42476,240,-119,-9040,665,1296,263,1289000
25901000,135,2326,-352,-343,-212,-3027,24202,145,-1484,-42049,240,-119,-9559,664,1324,-82,1324000
25950000,57,3318,-55,21,453,-5224,24263,-3089,-567,-38607,240,-39,-9960,664,1337,375,1351000
26001000,127,3827,324,260,1251,-1989,28108,-1197,-1203,-32161,240,-80,-9360,663,1356,142,1356000
26050000,-52,4702,-168,11,711,-3881,22859,2342,-157,-14514,240,-80,-7200,665,1379,381,1378000
26101000,7,4846,-185,71,275,85,16572,4906,-509,-3220,359,-80,-5399,663,1392,146,1392000
26150000,-61,5182,630,14,1678,-6445,13643,1060,-109,7107,359,-80,-3960,663,1413,507,1407000
26201000,-135,4198,341,-77,725,3015,-10282,-159,321,8361,240,-80,-2760,664,1432,397,1432000
26250000,-164,3783,-546,-391,355,-1806,276,3013,490,10597,240,-80,-1959,664,1451,347,1455000
26301000,-216,3041,-411,-416,-388,-280,-12418,1427,793,10469,240,-80,-1239,663,1480,-46,1480000
26350000,-231,2167,5,126,1792,-5773,1253,-2418,882,8648,240,-80,-679,663,1505,450,1475000
26401000,-280,1543,-383,166,1540,-2416,-16019,1427,1167,7112,240,-80,-319,664,1526,292,1526000
26450000,-311,1259,287,192,1926,-5041,-455,2586,1343,6624,240,-80,-119,663,1538,410,1555000
26501000,-488,1036,205,296,1926,1062,-11442,-1197,2371,5330,240,-80,-119,663,1552,413,1552000
26550000,-529,289,996,311,1926,7409,-23405,-37,2615,1215,359,-80,-80,655,1587,175,1578000
26601000,-507,-377,-400,-416,819,3869,-2409,-404,2482,-2427,240,-80,-39,630,1607,372,1607000
26650000,-485,-469,-82,-112,341,-1257,-8634,-2540,2587,-3428,240,-39,-119,576,1630,329,1629000
26701000,-353,-965,-36,-160,1538,1855,-4057,2891,1357,-6076,240,-119,-80,567,1678,599,1678000
26750000,-264,-558,-172,-105,1926,3320,8516,877,1072,-3710,240,-80,-80,567,1691,382,1691000
26801000,-273,-563,546,157,1531,-646,-19437,1854,1126,-3507,240,-80,-39,567,1704,74,1704000
26850000,-238,-716,839,-139,194,1794,3877,999,686,-4396,359,-119,-39,567,1721,19,1739000
26901000,-320,-136,-742,163,1926,2282,8699,-37,1395,-1023,240,-80,-39,567,1754,273,1754000
26950000,-363,145,-512,49,-248,1123,-4118,877,1414,611,240,-119,-39,567,1758,591,1756000
27001000,-322,259,-525,-314,0,3564,-22550,1427,1179,1273,359,-119,-39,567,1769,270,1769000
27050000,-348,375,299,127,60,2404,-17667,2952,1558,1717,240,-80,-80,566,1767,233,1768000
27101000,-270,447,-171,-64,1926,3808,-10404,5333,1105,1904,240,-80,-119,568,1769,503,1769000
27150000,38,-266,-338,-28,1926,10034,-20109,4906,-689,-2243,359,-80,-119,568,1755,215,1754000
27201000,193,-655,-37,-110,-71,-6628,2778,4967,-1355,-4509,359,-39,-119,567,1758,-799,1758000
27250000,357,52,-568,-227,1521,5090,14131,999,-2775,-157,359,-119,-80,567,1737,-856,1735000
27301000,900,-21,139,-36,-804,9362,-22611,4539,-5701,-588,359,-80,-80,570,1743,-1102,1743000
27350000,1094,341,-362,-259,774,-3210,10225,2586,-6827,1053,240,-80,-160,601,1708,-863,1696000
27401000,1137,1080,-179,13,1412,2465,-10343,2342,-7079,5582,240,-80,-119,611,1674,-795,1674000
27450000,1053,726,35,165,528,-6506,-2714,999,-6822,3527,359,-119,-119,612,1674,-473,1669000
27501000,795,1219,126,138,1487,-3393,20967,-37,-5087,6626,359,-80,-80,617,1623,-499,1623000
27550000,638,1230,346,339,1926,-2600,-6254,816,-3945,6457,240,-39,-119,618,1617,-527,1610000
27601000,486,943,-396,222,-669,-7116,1863,1549,-3295,4787,359,-80,-119,618,1579,-1260,1580000
27650000,454,1275,-185,245,1481,-3576,17488,-526,-2876,4855,359,-39,-440,618,1559,-943,1555000
27701000,589,1140,319,220,1926,1550,-4179,-343,-4123,4536,359,-119,-360,618,1520,-926,1520000
27750000,411,1708,434,172,1926,-2233,22798,-3944,-2859,7140,240,-80,-479,622,1478,-890,1484000
27801000,353,2152,203,174,1613,-769,6502,-1502,-2754,9954,240,-119,-440,622,1458,-775,1458000
27850000,209,1880,582,130,1926,1550,3938,145,-1680,8142,240,-80,-479,623,1413,-1378,1420000
27901000,36,2055,568,-195,1926,5395,5342,-9132,-678,9157,240,-80,-479,626,1381,-849,1381000
27950000,177,1939,95,-63,617,11132,-12846,-10108,-1495,8481,359,-80,-479,625,1346,-773,1344000
28001000,307,1967,204,-139,1926,4724,21577,-9193,-2483,6556,359,-119,-839,626,1302,-401,1302000
28050000,157,2280,56,246,1926,5273,-3873,-11146,-1378,2561,240,-80,-1840,625,1301,-742,1283000
28101000,64,1824,332,162,569,939,-1310,-7056,-839,-6134,359,-80,-2879,632,1255,-1054,1255000
28150000,-84,2313,423,155,929,4541,16023,-8338,24,-7476,359,-80,-3600,661,1201,-1344,1212000
28201000,-195,1981,561,362,1574,-7055,5647,-7362,671,-13828,240,-80,-4359,663,1179,-1030,1179000
28250000,-289,2324,806,25,916,1855,30549,-10108,1216,-10668,359,-80,-4160,663,1145,-940,1133000
28301000,-329,2362,432,117,1329,24,15046,-11390,1684,-9520,240,-39,-3999,663,1080,-572,1080000
28350000,-483,2226,148,-48,1781,85,14436,-11268,2345,-7518,240,-80,-3520,663,1072,-782,1063000
28401000,-601,1808,779,138,1926,-6384,9797,-10291,3032,-9018,359,-80,-3359,663,1047,-600,1041000
28450000,-589,1770,733,273,1130,-646,14802,-10963,2963,-7610,240,-80,-3079,663,1000,-643,996000
28501000,-622,1888,621,-110,574,-5407,10774,-10169,3154,-4366,240,-80,-2640,664,983,-564,983000
28550000,-776,1915,-130,-183,-430,-97,-1554,-12855,4048,-723,359,-80,-2040,663,977,-665,974000
28601000,-681,1649,376,319,1926,1916,12300,-12122,3261,983,359,-119,-1480,664,927,-360,927000
28650000,-479,1768,758,52,1926,4418,-6193,-12427,2323,5164,240,-80,-880,662,908,-678,923000
28701000,-547,1071,211,-57,785,-769,-11320,-10169,2715,4601,240,-80,-279,662,889,-620,889000
28750000,-549,1067,178,-272,465,4541,-3751,-10474,2727,5272,359,-80,-160,663,863,-633,832000
28801000,-373,949,240,-275,1460,5151,8027,-11634,1472,4358,240,-119,-199,663,822,-367,822000
28850000,-387,602,-560,-78,1540,6860,-16386,-11817,1787,2105,359,-80,-240,663,793,-1069,821000
28901000,-321,97,-172,-217,1926,6127,-7108,-6995,1404,-825,359,-80,-240,664,779,-482,779000
28950000,-157,163,-825,-223,621,3381,-14066,-6141,680,-443,240,-39,-240,664,762,-249,758000
29001000,-184,-189,-346,-42,-532,2160,-12479,-7362,605,-2266,720,-80,-199,666,733,-804,733000
29050000,-122,-290,-439,-441,-323,6066,-9550,-9193,13,-2617,1920,-119,-160,667,732,-741,743000
29101000,37,-433,-299,175,929,4724,-6010,-5653,-917,-3679,2039,-119,-199,667,693,-426,693000
29150000,198,-309,390,170,1926,4357,5769,-5042,-1384,-2498,2160,-39,-119,665,684,-480,698000
29201000,268,-254,675,-9,1926,939,-12723,-8216,-2722,-1945,839,-199,-80,666,691,-211,691000
29250000,352,-275,271,221,501,4968,1802,-6019,-4141,-2761,359,-360,-199,665,657,-117,668000
29301000,336,389,-220,-323,-310,-1440,-4301,-5958,-4513,1100,240,-440,-199,665,655,-383,655000
29350000,246,-111,228,57,-223,-3454,-8451,-6751,-7247,-7620,359,-1000,-1200,664,650,-451,668000
29401000,106,471,-200,208,1926,-891,14253,-3272,-6432,-6794,359,-1000,-1640,665,630,-53,630000
29450000,43,869,540,-2,1926,-1684,-5399,-5775,-6760,-8198,240,-1119,-2280,665,638,-98,634000
29501000,-337,929,-351,72,515,-4736,1680,-5592,-4780,-7386,119,-1160,-2200,661,656,-160,656000
29550000,-482,1316,-36,-104,939,-1623,-2714,-5408,-11381,-1878,240,-2439,-1640,660,616,-155,623000
29601000,-627,1375,-413,-410,323,-3210,5525,-4371,-10071,-374,119,-2359,-1440,660,606,-220,606000
29650000,-907,1789,-219,261,1926,-8581,5830,-5164,-6813,5518,240,-2079,-839,659,623,-225,620000
29701000,-917,1308,207,179,1926,-2722,-13517,-1624,-6524,5050,119,-2040,-440,661,604,-268,604000
29750000,-1021,1640,-521,-250,1710,-2172,4793,-4981,-7084,8840,240,-2239,-119,661,610,-227,599000
29801000,-1180,1320,-668,-173,-949,-3088,-19743,-2845,-5925,7209,240,-2200,-80,661,582,-781,582000
29850000,-1306,985,86,36,794,-8093,11201,-3760,1082,5262,240,-1119,-80,661,590,-253,586000
29901000,-1209,1054,329,-119,336,5334,-6376,-4188,2146,5898,240,-839,-39,658,578,-198,578000
29950000,-1117,778,-541,125,-477,-769,-2592,-220,4402,4060,240,-360,-80,622,598,-292,598000
30001000,-1136,694,-722,114,724,-36,-15348,-2723,4513,3803,240,-360,-39,620,604,-197,604000
30050000,-968,347,338,206,1926,-1379,-5277,-1990,3538,1557,240,-360,-80,618,597,206,604000
30101000,-764,383,730,104,1335,-1745,-2775,-4127,1883,1534,359,-440,-119,621,582,-328,582000
30150000,-698,116,522,-212,-189,1611,-13883,-2723,-5237,-1881,240,-1599,-440,619,598,-487,580000
30201000,-733,67,475,165,1926,-4370,6624,450,-11315,-3558,240,-2680,-679,620,576,-216,580000
30250000,-914,701,423,-153,88,-1318,-13090,-1380,-10263,-1039,240,-2680,-880,622,561,-371,562000
30301000,-1182,761,-360,-388,-1051,-6079,-8329,3441,-9166,-1152,359,-2760,-959,628,573,-369,573000
30350000,-1422,852,-650,-169,-468,-8337,-5033,1671,-10332,-1091,359,-3200,-1039,632,547,-782,551000
30401000,-1650,832,-409,-387,1036,-7055,-16813,1427,-11331,-511,119,-3600,-920,633,535,-522,535000
30450000,-1843,870,-171,-1,979,-12548,-1188,1854,-10443,2270,359,-3639,-479,634,526,-195,519000
30501000,-2142,892,-180,-148,-74,-11206,-12601,1854,-8008,4489,240,-3520,-119,633,525,-615,525000
30550000,-2226,680,-774,21,57,-10656,-8268,5150,-4960,3023,359,-3079,-160,634,525,-516,523000
30601000,-2102,866,-686,-352,-731,2160,-9061,6492,-3821,3871,240,-2760,-199,634,527,-942,527000
30650000,-1942,752,-221,-295,1111,-4858,-2653,328,-4284,3214,240,-2680,-199,634,503,-884,464000
30701000,-1872,872,-955,-442,-6,1367,-5460,3990,-4227,3907,359,-2600,-199,633,465,-685,465000
30750000,-1777,820,-473,-149,860,-6262,-4850,5516,1493,3608,240,-1519,-199,615,423,-917,420000
30801000,-1875,1010,808,-10,1926,-3027,-7536,3013,2299,4477,240,-1480,-240,614,440,-407,440000
30850000,-1522,851,593,-139,1926,8569,-7658,816,3038,3788,240,-1000,-199,614,429,-985,403000
30901000,-1241,1174,-388,-233,402,451,-2470,7408,1639,5667,240,-959,-199,610,333,-985,364000
30950000,-1035,833,686,-46,985,2160,-10709,6126,906,3449,240,-880,-240,603,330,-890,337000
31001000,-951,768,22,347,1854,-2294,23713,11009,416,3303,359,-880,-199,604,329,-546,329000
31050000,-850,1222,-292,141,1616,4479,9920,9117,-174,5942,240,-880,-199,602,303,-963,308000
31101000,-711,954,-980,-205,235,2587,-10587,13450,-46,4383,240,-720,-199,601,206,-916,206000
31150000,-644,838,-648,-192,1388,-524,-700,8018,2818,3942,240,-160,-160,563,229,-682,208000
31201000,-678,781,779,340,1189,-463,-17423,7042,2778,4079,240,-199,-80,484,197,-538,197000
31250000,-928,326,361,269,1334,-4553,-18583,10948,4931,1664,240,-80,-39,290,209,-667,134000
31301000,-1133,416,452,-505,1926,-2478,10774,7652,6126,1954,240,-80,-80,68,95,-687,95000
31350000,5531,1515,280,-413,646,108666,90791,-17310,-32617,8578,0,-80,-39,0,54,-444,90000
31401000,5915,2242,513,-456,532,35485,24141,-7789,-35082,12568,119,-119,-80,0,74,-305,74000
31450000,5727,1560,-747,548,1749,39758,-7047,-26099,-33755,8372,0,-80,-119,0,42,-518,58000
31501000,7984,-1107,463,-29,1262,85046,-85599,21019,-47344,-6672,119,-160,-39,0,108,-50,108000
31550000,9521,-2218,227,243,1208,22546,10774,3929,-55577,-13590,0,-39,-119,0,155,-42,100000
31601000,11018,545,-30,89,847,8386,80781,-22864,-64745,2704,0,-119,-80,0,92,-208,92000
31650000,11146,2175,-132,361,595,-29455,12849,3624,-65954,12179,359,-199,-80,0,114,-165,67000
31701000,11303,4,62,730,857,-47705,-64603,15159,-67102,-670,480,-240,-119,1,134,-3,134000
31750000,10534,-830,292,488,718,-56616,22676,-4920,-63094,-5523,720,-319,-119,3,111,-166,96000
31801000,8192,817,-414,-105,76,-112097,34700,2037,-48088,4284,-119,-80,-80,0,129,-430,129000
31850000,4656,385,-336,-1814,1498,-138281,-57523,9361,-27531,1773,-119,-80,-80,0,97,-383,148000
31901000,5665,-1857,316,580,1926,878,-28349,30479,-33395,-11264,-119,-80,-80,0,148,223,148000
31950000,4938,-811,480,-545,215,2648,60090,37620,-29168,-5180,-119,-80,-80,0,136,-109,104000
32001000,4519,1159,84,560,331,41894,14497,15709,-26734,6272,0,-80,-80,0,166,-230,166000
32050000,3112,-609,257,-28,1235,-14807,-44340,27672,-18555,-4007,-119,-80,-80,0,116,-517,130000
32101000,2650,-851,-48,-396,334,1794,40437,1121,-15873,-5415,0,-80,-80,0,74,-774,74000
32150000,2014,-522,164,5,1087,268,-30241,-7301,-12176,-3505,119,-80,-80,0,104,-495,121000
32201000,1575,-1586,-52,497,862,3015,21333,-2052,-9856,-9917,240,-119,-119,0,151,-265,151000
32250000,1359,-1249,409,-57,797,2343,-6132,4967,-8368,-7725,240,-80,-80,0,86,-349,140000
32301000,1084,-1769,-97,191,1153,1123,-6620,2037,-7003,-10983,240,-119,-119,0,86,-273,78000
32350000,939,-1892,142,-59,797,4907,7600,2952,-5926,-11462,359,-80,-80,0,125,112,167000
32401000,729,-1495,14,-148,541,-7360,-4179,-6263,-4935,-9157,240,-119,-80,0,79,-221,79000
32450000,637,-1788,69,163,1206,-708,-2348,5333,-4173,-10861,119,-80,-80,0,105,-90,148000
32501000,539,-1577,101,-95,974,-4003,10286,-3760,-3135,-9865,240,0,-119,0,158,251,158000
32550000,468,-1313,-1,49,975,-1501,-6193,3135,-2952,-8332,240,-39,-119,0,115,39,94000
32601000,414,-1487,-110,-8,1054,-97,-516,-1624,-3109,-9108,119,-119,-80,0,61,-179,61000
32650000,358,-1222,137,15,822,-646,3694,3135,-2317,-7803,119,-39,-119,0,159,350,111000
32701000,311,-1112,-75,16,883,-219,-3995,-2113,-2277,-6930,119,-80,-80,0,67,-68,67000
32750000,270,-1226,-64,-13,1040,-280,2168,1610,-2040,-7595,119,-80,-80,0,65,-239,94000
32801000,233,-958,28,-59,994,24,3023,-1380,-1591,-6267,240,-39,-119,0,47,-200,47000
32850000,205,-912,-28,-45,1023,-524,-3751,-1136,-1658,-6002,240,-80,-119,0,142,152,103000
32901000,161,-967,-70,3,1056,390,2351,389,-1403,-6089,240,-80,-80,0,155,257,149000
32950000,103,-771,-30,19,1012,1306,1680,1060,-1066,-4948,119,-80,-80,0,159,260,215000
33001000,60,-817,-10,-22,933,207,-2348,877,-1050,-5214,240,-119,-80,0,103,-84,103000
33050000,33,-846,-33,29,1004,24,2534,-892,-894,-5155,119,-119,-39,0,142,53,98000
33101000,23,-728,69,-26,909,-1196,-761,450,-831,-4698,240,-119,-80,0,122,68,122000
33150000,11,-845,36,7,962,-646,-3629,-1319,-529,-5377,119,-80,-80,0,106,-47,79000
33201000,-5,-845,49,17,1016,-524,2717,1732,-200,-5610,240,-39,-119,0,125,19,125000
33250000,0,-758,-14,27,1092,939,-639,23,-467,-4875,240,-80,-80,0,75,-193,129000
33301000,16,-853,-25,-11,1093,207,-1432,2281,-326,-5656,119,-39,-119,0,120,54,120000
33350000,8,-763,-2,-3,963,-158,3084,-98,-512,-4900,119,-80,-80,0,193,282,153000
33401000,16,-743,-30,-3,830,512,-2958,1365,-562,-4787,119,-80,-80,0,126,-49,126000
33450000,23,-837,-34,-54,907,1550,-822,-648,-370,-5564,240,-39,-119,0,47,-359,76000
33501000,38,-746,-31,-22,934,451,1436,2220,-454,-4805,240,-39,-80,0,183,234,183000
33550000,36,-780,-21,-54,953,512,-2531,267,-911,-5004,119,-119,-80,0,121,45,107000
33601000,46,-842,20,24,1108,-97,1192,1610,-969,-5362,240,-119,-80,0,79,-197,79000
33650000,44,-733,-29,24,911,-1562,3511,-98,-722,-4728,119,-80,-80,0,157,217,58000
33701000,65,-779,1,14,906,756,-1737,999,-847,-5229,119,-80,-119,0,122,46,122000
33750000,73,-794,5,41,954,817,1558,-281,-894,-5314,240,-80,-119,0,136,98,114000
33801000,98,-717,27,-8,996,1489,337,1121,-1271,-4633,240,-119,-80,0,136,157,136000
33850000,106,-786,28,-21,1006,512,-1371,-648,-1315,-5034,240,-119,-80,0,107,-81,168000
33901000,114,-761,14,5,944,1062,1924,1549,-1133,-5122,119,-80,-119,9,127,36,127000
33950000,117,-747,6,-12,871,207,-700,-526,-1145,-4812,119,-80,-80,61,131,120,87000
34001000,115,-845,-31,-31,927,329,-1066,-98,-1134,-5379,839,-80,-80,79,119,109,119000
34050000,92,-790,-5,-58,905,-36,1924,-892,-1003,-5292,359,-80,-119,89,137,61,65000
34101000,88,-787,-10,-99,917,512,-1554,1243,-748,-5274,240,-39,-119,129,82,-182,82000
34150000,84,-817,-31,-86,972,1123,32,145,-954,-5217,240,-80,-80,150,85,-140,83000
34201000,76,-783,56,-26,1024,451,764,-1075,-1145,-5017,240,-119,-80,162,91,-76,91000
34250000,72,-854,30,47,1033,451,-1493,-2906,-886,-5434,240,-80,-80,191,87,-77,93000
34301000,70,-875,-25,-16,1110,-1013,1741,999,-875,-5551,240,-80,-80,200,123,14,123000
34350000,58,-848,18,64,1198,756,154,84,-802,-5395,240,-80,-80,212,81,-94,156000
34401000,53,-890,88,-83,829,3137,-1798,-1014,-541,-5639,359,-39,-80,213,134,49,134000
34450000,28,-830,81,-44,1014,-6750,-2653,-1929,-628,-5290,240,-80,-80,215,113,35,109000
34501000,57,-773,63,-35,913,268,-394,-8643,-799,-5195,240,-80,-119,218,143,175,143000
34550000,59,-748,43,-16,1552,817,-28,-8338,-809,-4816,240,-80,-80,235,115,-94,136000
34601000,62,-611,267,-233,1186,3747,-2409,328,-826,-4019,240,-80,-80,257,70,-190,70000
34650000,124,-590,178,288,1440,2465,2473,-6202,-956,-4132,359,-39,-119,268,135,46,83000
34701000,130,-534,161,143,664,6311,-1310,3380,-1223,-3573,240,-80,-80,268,99,-138,99000
34750000,159,-441,628,-22,441,1489,642,-4676,-1393,-3263,119,-80,-119,282,110,17,136000
34801000,181,-448,187,52,1239,-1684,1008,-5836,-1285,-3306,240,-39,-119,286,129,106,129000
34850000,218,-456,101,55,1572,-646,-1066,-526,-1734,-3117,240,-80,-80,302,191,433,111000
34901000,257,-488,-24,-37,513,1672,-3446,572,-1960,-3766,240,-80,-160,316,150,156,150000
34950000,291,-505,-24,51,1350,-524,825,2098,-2159,-3173,240,-80,-39,326,136,251,130000
35001000,291,-490,86,-34,512,2587,947,-4737,-2390,-3317,359,-119,-80,339,150,48,150000
35050000,263,-533,148,66,1265,-2966,-639,3135,-1995,-3801,240,-80,-119,352,104,21,117000
35101000,256,-613,-83,72,316,695,6563,-2357,-1956,-4030,240,-80,-80,352,86,-119,86000
35150000,251,-611,172,50,1238,-6506,9187,-159,-1924,-4483,240,-80,-160,353,134,159,180000
35201000,186,-722,58,-80,1327,451,-6315,-2418,-1319,-4666,240,-39,-80,351,99,72,99000
35250000,143,-538,-46,-126,908,1489,13215,-1868,-1529,-3593,240,-119,-80,352,58,-173,65000
35301000,39,-497,58,51,826,4663,-7413,2220,-694,-3359,240,-80,-80,352,118,96,118000
35350000,-37,-537,-38,18,644,-2111,-1798,3135,-247,-3592,240,-80,-80,352,189,388,82000
35401000,-149,-553,-26,-38,975,-1379,-394,-220,635,-3681,240,-39,-80,352,120,124,120000
35450000,-239,-528,113,101,538,-891,-13944,3868,928,-3536,240,-80,-80,352,111,118,99000
35501000,-335,-529,-125,-66,1037,-4370,10591,-4981,1255,-3544,359,-119,-80,354,105,-7,105000
35550000,-375,-457,50,-148,1352,24,6074,572,1947,-3354,240,-39,-119,364,192,227,92000
35601000,-439,-441,-50,38,642,-7849,703,-4920,2087,-3032,240,-80,-80,372,127,-179,127000
35650000,-347,-427,-116,-23,1189,-1501,7051,2525,1554,-2949,240,-80,-80,377,108,-221,89000
35701000,-323,-474,115,66,1752,3198,1985,-4981,1183,-3225,119,-119,-80,378,108,-134,108000
35750000,-252,-542,139,57,967,4968,-10282,3197,772,-3620,119,-119,-80,380,105,1,81000
35801000,-199,-481,-29,24,1260,-3332,7478,-3577,459,-3261,359,-119,-80,398,85,54,85000
35850000,-59,-648,-201,-71,1478,1245,2534,389,-118,-4466,240,-80,-119,419,53,-303,96000
35901000,5,-642,137,26,1759,1733,-455,-4310,-495,-4433,240,-80,-119,438,139,123,139000
35950000,83,-570,20,132,1168,-11511,7173,3990,-947,-3781,240,-80,-80,442,104,92,139000
36001000,188,-541,-90,137,523,4418,93,-2784,-1559,-3847,240,-80,-119,441,106,-186,106000
36050000,206,-470,462,241,948,4418,-14616,2952,-1663,-3199,359,-80,-80,445,137,174,138000
36101000,189,-545,675,136,1311,4235,-8390,-1990,-1569,-3637,240,-80,-80,450,79,-66,79000
36150000,238,-499,-388,-392,582,5883,-2409,-1380,-1850,-3371,240,-80,-80,451,127,95,151000
36201000,227,-706,370,151,1120,-3942,4060,-2357,-2018,-4342,240,-119,-39,450,136,163,136000
36250000,248,-537,0,-197,157,-7849,-1676,2220,-1909,-3587,359,-80,-80,452,49,46,63000
36301000,322,-933,-177,-365,964,-4187,-7902,-1807,-2340,-5890,240,-80,-80,451,97,-156,97000
36350000,361,-706,-137,-176,1171,4846,1924,2342,-2563,-4569,240,-80,-80,456,95,-173,116000
36401000,327,-876,251,92,679,-5224,10286,-2662,-2369,-5792,240,-80,-119,458,84,-208,84000
36450000,300,-811,35,-55,155,-3820,-12601,3563,-2208,-5179,119,-80,-80,461,124,141,64000
36501000,308,-887,-417,-385,855,-4431,154,1121,-2257,-5623,240,-80,-80,469,142,-4,142000
36550000,339,-1043,541,100,1231,7287,-14738,-1502,-2672,-6532,359,-119,-80,471,129,-195,185000
36601000,298,-795,-381,-397,146,-8337,6685,-2479,-1969,-5322,240,-39,-119,487,84,-600,84000
36650000,330,-1111,389,390,913,-463,-12723,-1014,-2387,-7160,240,-80,-119,496,107,-238,136000
36701000,382,-916,-365,-223,927,-1562,5830,6065,-2691,-5789,240,-80,-80,496,81,-398,81000
36750000,375,-1141,208,228,445,7348,-8390,-5042,-2647,-7098,359,-80,-80,501,125,-32,74000
36801000,330,-943,303,-77,912,4846,8394,816,-2384,-6182,359,-80,-119,505,121,44,121000
36850000,231,-1111,-237,38,1680,1794,3206,-648,-1809,-7160,240,-80,-119,509,122,-167,67000
36901000,90,-735,-408,223,241,-3393,13093,4417,-988,-4743,240,-80,-80,510,82,-557,82000
36950000,-20,-922,296,149,1083,1977,-23466,-770,-111,-6061,359,-39,-119,521,122,-204,79000
37001000,22,-1040,-384,-20,1612,2099,15474,2769,-595,-6515,240,-80,-80,525,74,38,74000
37050000,-11,-730,-389,50,1548,3808,-9183,1060,-400,-4711,359,-80,-80,536,82,-131,100000
37101000,1,-1118,3,-7,-163,1184,-2592,4173,-239,-6967,119,-39,-80,541,98,-428,98000
37150000,73,-611,401,-23,956,4663,-3446,2342,-1121,-4019,119,-119,-80,549,79,-763,145000
37201000,101,-649,-255,199,1926,-3088,11873,5150,-1055,-4474,359,-80,-119,550,118,-228,118000
37250000,41,-528,-650,-31,1280,-9069,7722,4906,-708,-3535,240,-80,-80,550,152,72,118000
37301000,-98,-710,-943,-331,1739,1672,1314,5150,109,-5058,240,-80,-160,551,167,69,167000
37350000,-355,-294,-1039,-264,1469,-4492,14985,5638,1602,-2407,240,-80,-119,551,68,72,97000
37401000,-489,-36,110,260,713,9240,-9489,5821,2148,-676,359,-119,-80,551,99,177,99000
37450000,-573,281,353,73,-208,-3210,18953,5333,2871,1405,359,-80,-39,552,81,210,82000
37501000,-467,1199,-354,239,1435,12170,6380,7713,2250,6741,240,-80,-39,560,139,619,139000
37550000,-573,1474,-529,5,-266,-14196,2168,6798,3101,8105,240,-39,-80,569,155,837,106000
37601000,-340,1718,25,174,1740,25231,-9977,5943,1745,9754,240,-39,-39,569,111,739,111000
37650000,-306,2196,31,105,86,-15539,11384,11802,1081,12067,240,-119,-119,569,97,571,168000
37701000,-810,2936,-75,113,1011,-891,20234,9300,4015,16372,359,-119,-119,569,157,757,157000
37750000,-40,3040,276,62,1926,9729,6074,7347,-1627,17443,359,-319,-39,569,165,538,70000
37801000,-165,2789,-248,97,279,-16455,5586,7225,-3919,18075,359,-839,320,569,140,-75,140000
37850000,5,2898,434,-214,-822,19372,-7963,10643,-4684,19869,359,-800,520,569,83,-139,196000
37901000,402,2848,-261,-108,30,2526,9920,5943,-6987,18419,359,-800,320,569,61,-68,61000
37950000,134,2886,-263,2,1926,-6201,-944,10887,-5665,16313,480,-839,-80,569,168,259,91000
38001000,-297,2563,81,73,1038,-8215,5342,8751,-2922,14438,359,-800,-80,569,104,-233,104000
38050000,-459,2365,-401,1,1926,-1684,-822,10765,-1981,13751,359,-800,0,570,95,-496,145000
38101000,-912,2237,508,-84,1926,-11694,-15592,7164,422,14630,359,-839,280,576,142,128,142000
38150000,-1094,2285,-233,60,1241,-1196,-2958,1732,1245,19794,480,-880,1119,584,102,283,126000
38201000,-971,2421,186,-58,-325,-4125,6990,3319,-631,26167,240,-1080,2079,585,107,-170,107000
38250000,-1359,1909,-721,-179,954,-19628,-18278,9056,-6280,24120,240,-2439,2239,584,122,-240,133000
38301000,-1396,1047,-146,-58,1785,-4003,-19315,10887,-6761,18414,119,-2560,2119,583,182,118,182000
38350000,-1269,869,398,176,1926,-5285,-9000,8812,-7736,11566,119,-2600,1119,582,142,-178,133000
38401000,-1657,824,-315,-647,471,-18103,-11625,7957,-5012,7582,240,-2519,480,583,108,-536,82000
38450000,-719,664,271,-304,-917,33227,-28776,15770,-10700,3629,359,-2560,-39,584,63,-676,47000
38501000,-625,842,224,277,1926,-7666,2107,20103,-9152,4432,240,-2200,-80,582,59,-54,59000
38550000,-1093,588,-920,-234,804,1367,-13883,12047,-2245,2955,359,-1480,-80,581,81,49,87000
38601000,-939,17,134,184,1242,-769,-7963,16746,-1048,-598,359,-1119,-119,581,128,150,128000
38650000,-1049,-322,127,-51,1658,-6628,-3202,14671,1449,-2572,359,-800,-119,583,99,281,96000
38701000,-1053,-58,-348,-263,-393,6738,-13395,11741,4961,-1038,480,-199,-119,584,128,61,128000
38750000,-814,133,207,319,1520,695,12910,10826,3574,80,359,-199,-119,583,107,91,161000
38801000,-805,691,346,-196,1641,1855,2595,16441,3520,3551,359,-199,-80,590,175,405,175000
38850000,-744,1308,-297,188,1249,21386,28352,13511,3162,4117,480,-199,-599,592,130,-171,171000
38901000,-688,1908,-209,22,1926,-2966,1130,10765,516,2491,359,-599,-1480,593,178,-119,178000
38950000,-1237,1706,-70,-289,179,85,-1554,15526,3010,151,2760,-720,-1679,593,99,-232,167000
39001000,-1211,2121,-228,179,566,-1684,24873,11497,1460,1405,8639,-959,-1879,592,151,-122,151000
39050000,-1419,2226,259,-227,780,-6018,6318,755,2668,2710,11759,-959,-1760,593,83,-147,136000
39101000,-1431,1895,-160,163,257,-1623,9553,2464,2508,321,11519,-1000,-1840,594,158,227,158000
39150000,-1508,1766,149,1,1136,-6750,8760,267,3418,39,13320,-920,-1760,595,146,289,131000
39201000,-1432,1586,-288,-179,942,-1257,15840,-1807,2744,155,13920,-959,-1560,595,78,-31,78000
39250000,-1221,1518,-359,-210,331,3747,-6254,-281,1750,1618,15359,-920,-1239,599,179,505,95000
39301000,-1124,1311,517,106,1926,85,6624,-3822,1186,878,19800,-920,-1160,599,145,380,145000
39350000,-1213,929,-980,-320,977,-2111,-7719,-7423,1706,2378,21960,-920,-520,597,117,279,153000
39401000,-1243,560,-85,302,1632,-7543,-3080,-8216,1880,1,21840,-920,-559,598,148,400,148000
39450000,-1086,115,112,-156,1510,2465,-19010,-10780,966,-488,24120,-920,-199,598,156,321,60000
39501000,-836,-164,-304,-39,677,3625,-16813,-12244,-487,-1885,26640,-920,-160,597,101,62,101000
39550000,-719,-171,744,271,1926,-585,4609,-17066,-932,-1464,27359,-880,-80,599,112,204,72000
39601000,-602,307,271,-227,-235,3808,-333,-15052,-1615,1089,27480,-880,-119,599,85,-322,85000
39650000,-764,726,200,177,1089,-6323,17488,-17615,-906,3759,31200,-920,-80,599,56,-400,99000
39701000,-1026,1313,162,-54,1530,-2905,5647,-27137,851,6935,32040,-880,-119,600,193,444,193000
39750000,-1358,1604,-253,-398,633,-891,-1188,-28541,2780,8862,33000,-880,-80,600,136,-60,86000
39801000,-1552,1506,-507,-404,866,-5651,-14555,-25794,3907,8059,33720,-880,-119,602,190,-16,190000
39850000,-1723,1575,507,-7,1425,-5590,-3385,-23597,4900,8693,35280,-880,-80,600,89,31,146000
39901000,-1817,1586,460,283,1823,-5163,-333,-26343,5447,8759,35760,-880,-80,601,127,-134,127000
39950000,-2013,1362,-302,-153,1090,-7421,-5216,-26099,6586,7455,35760,-880,-80,602,172,218,116000
40001000,-1820,1022,282,-38,37,6799,-9489,-27503,5466,5476,35760,-880,-80,601,201,13,201000
40050000,-1579,700,13,187,429,-6384,-2348,-28846,4067,3372,33720,-880,-119,601,144,-46,167000
40101000,-1431,527,-165,-45,1435,2709,2717,-26405,3207,2603,27120,-880,-80,608,116,-191,116000
40150000,-1214,576,-317,-144,987,3869,-9611,-19935,1714,2421,29519,-920,-160,632,102,-290,146000
40201000,-1305,235,705,16,1360,2832,-16141,-25306,2475,669,29880,-880,-119,637,100,-222,100000
40250000,-1203,-218,-41,-102,236,6433,-12296,-20972,2115,-1967,23640,-839,-119,637,130,-169,108000
40301000,-1238,75,383,-157,1122,-3637,5464,-19447,4641,-489,12480,-440,-160,637,182,123,182000
40350000,-1222,71,16,-113,-397,8325,-15531,-9803,6408,-4464,7440,-119,-839,639,181,133,162000
40401000,-1168,270,184,-277,1405,6860,11384,-8216,6560,-4006,7200,-39,-959,641,150,360,150000
40450000,-1237,372,-633,-599,709,6799,-11503,-9742,6958,-5504,6960,-39,-1319,642,158,92,156000
40501000,-1131,398,-779,-25,1251,7775,1924,-3577,5878,-6751,7079,-119,-1560,643,170,223,170000
40550000,-965,493,304,360,1926,3625,8882,755,5147,-8526,6600,-80,-1959,643,224,473,165000
40601000,-985,874,-91,28,628,-1989,2473,-5164,5031,-6545,6479,-119,-2000,644,160,-122,160000
40650000,-894,749,-613,78,585,3137,276,-1258,4502,-7268,5160,-119,-2000,645,196,374,222000
40701000,-778,1201,439,366,1926,-7971,21394,267,4060,-4409,4320,-80,-1959,644,184,-139,184000
40750000,-848,1416,-30,236,1926,-769,-5338,1610,4467,-2925,3480,-80,-1920,642,221,45,181000
40801000,-609,1655,-338,48,124,-280,6990,2647,2848,-377,1560,-119,-1720,642,260,-103,260000
40850000,-465,2335,-88,291,1392,2954,11445,-1014,2238,4042,839,-80,-1640,642,224,142,268000
40901000,-264,2391,69,268,1926,-1074,5708,3685,1074,7159,359,-80,-1160,643,320,-91,320000
40950000,-15,2672,-559,155,1189,2404,6624,6737,-142,11816,240,-39,-640,642,373,432,370000
41001000,266,2561,-498,-176,-900,-97,520,-1075,7516,10004,240,1559,-839,641,350,-276,350000
41050000,442,2442,213,-248,91,7226,3267,6981,32766,8151,240,6080,-1039,642,397,345,382000
41101000,1270,2221,-491,-342,-1022,27368,-12235,3807,31444,8957,359,6680,-679,641,349,-61,349000
41150000,1862,1854,99,-36,1125,13391,-2409,2952,17772,9151,240,4920,-279,641,396,149,416000
41201000,2207,1769,834,177,1406,23583,-5582,3135,-41,9588,240,2200,-119,641,456,573,456000
41250000,2369,1421,-52,-38,-571,6616,-13151,6859,-14003,7800,240,-39,-80,641,486,303,475000
41301000,1888,1248,813,75,1823,512,6624,3380,-10976,7025,119,0,-39,640,469,485,469000
41350000,1617,1091,207,-114,89,8874,-11076,2159,-9635,6113,240,-39,-39,641,509,485,523000
41401000,1409,1124,-730,65,582,-4431,5708,8262,-8658,6073,240,-80,-80,640,498,249,498000
41450000,1026,1266,258,335,1926,2709,-5704,1915,-6429,-2637,240,-80,-1720,640,538,319,555000
41501000,795,1246,-556,-14,-507,-2478,12971,7652,-5087,-5775,240,-80,-2239,641,540,84,540000
41550000,343,2072,-13,330,1607,-8520,24263,8690,-2460,-12365,240,-80,-4200,641,553,140,539000
41601000,146,2213,651,-31,1680,390,-3385,8079,-1081,-19453,119,-39,-5560,640,581,386,581000
41650000,-105,3054,-146,161,612,-11755,42879,8323,150,-16886,119,-80,-5959,639,595,231,579000
41701000,-209,3943,554,-16,548,5212,3633,4967,521,-10324,240,-119,-5720,639,592,87,592000
41750000,-131,3942,78,-449,-855,-1928,19746,7042,67,-1266,240,-119,-4160,641,594,-159,602000
41801000,-445,5113,516,-72,1150,-6933,31526,6614,2124,14147,240,-80,-2680,641,620,125,620000
41850000,-432,4959,177,-53,730,1306,-9916,3074,2050,20920,240,-80,-1360,641,638,151,627000
41901000,-724,4854,-993,-99,-824,-10839,19746,8934,3746,25197,359,-80,-520,641,666,-232,653000
41950000,-1006,5380,-172,2,892,-7116,7844,9544,5615,30115,240,-39,-199,641,657,185,667000
42001000,-962,4010,-40,-187,728,2099,-30607,6737,5129,22844,240,-80,-80,641,685,-144,685000
42050000,-1174,3346,57,-135,1375,-11206,5708,8323,6361,18988,240,-80,-80,641,704,-7,713000
42101000,-1200,2945,318,304,1926,-3027,-3873,5333,6278,16656,240,-119,-80,640,727,287,727000
42150000,-974,1658,192,113,1926,-3820,-10770,5699,5200,8943,119,-80,-119,641,739,-12,750000
42201000,-1146,794,-771,58,1137,-12121,-7597,7225,5964,3920,359,-119,-119,641,748,101,748000
42250000,-1020,202,-171,84,259,-3576,-8451,4967,4306,248,359,-279,-160,641,760,239,770000
42301000,-760,-406,865,-39,845,-891,-14982,2769,-2092,-3290,240,-1119,-160,642,791,346,791000
42350000,-902,-854,25,-141,-273,-6018,-14249,5577,-1263,-5895,240,-1119,-160,642,785,-185,787000
42401000,-1039,-494,116,-221,239,-6079,-6193,6370,-234,-4034,240,-1080,-199,640,814,87,814000
42450000,-926,-629,638,181,1926,-3759,-20780,2403,504,-5054,240,-839,-240,641,799,-24,811000
42501000,-1100,-638,206,239,1926,-14807,11201,7713,5003,-9293,240,-240,-959,612,862,200,862000
42550000,-1075,-361,-76,180,1926,4113,-4789,5211,5787,-8842,0,-80,-1160,593,826,-1,824000
42601000,-753,-918,-123,283,1665,-1806,-4606,5577,3682,-14174,119,-119,-1519,592,839,-106,839000
42650000,-768,-670,116,306,1926,-5651,17000,3990,4002,-18544,240,-80,-2519,603,844,54,854000
42701000,-634,-384,216,-84,602,-830,-16569,3746,3222,-20604,0,-80,-3159,621,866,-160,866000
42750000,-617,-79,798,157,1289,-3393,13582,4478,3356,-29992,240,-39,-5080,621,869,-13,867000
42801000,-563,1079,725,-21,888,5212,15046,2769,3043,-22789,240,-39,-5000,622,854,-12,854000
42850000,-362,1428,403,-100,397,6982,-6803,4234,1640,-21456,240,-80,-5120,624,871,-114,872000
42901000,-257,2067,28,61,724,756,29939,6492,1031,-17510,359,-80,-5080,623,860,-215,860000
42950000,-172,2953,-181,109,517,5212,14131,5028,73,-8873,359,-160,-4479,625,879,-79,867000
43001000,-39,2968,155,383,241,-2783,14070,8629,-469,-5068,240,-119,-3839,626,854,-231,854000
43050000,-141,3537,407,283,1232,-1074,25667,4417,124,5215,240,-119,-2640,644,860,-125,838000
43101000,95,3163,30,-105,787,7165,-13639,5821,-1255,5603,359,-119,-2200,646,845,-225,845000
43150000,49,2831,-621,-238,-623,573,6441,7164,-750,5066,240,-80,-1959,645,832,-466,824000
43201000,2,2770,-463,-66,170,2709,-6315,3502,-477,5409,240,-80,-1840,645,845,-263,845000
43250000,151,1812,-377,-148,-235,2648,-11442,7103,-1578,307,119,-119,-1760,645,816,-250,819000
43301000,151,1646,-310,-396,-410,8020,-2225,1304,-1581,-659,240,-119,-1760,645,808,-292,813000
43350000,208,741,-724,-244,-884,2587,-24869,4051,-7025,-2433,240,-1000,-1160,645,818,84,808000
43401000,249,240,54,-39,181,-3881,9553,1365,-10520,-4882,240,-1560,-1080,645,777,-285,777000
43450000,20,53,-779,115,-656,-9252,-10404,5394,-14533,-5732,240,-2480,-1039,645,814,-154,797000
43501000,-193,-446,-1198,-285,-1523,-2966,-9733,2708,-20267,-7712,240,-3680,-880,645,785,-860,785000
43550000,-464,43,-136,19,309,-20178,7905,4173,-21013,-5560,240,-4080,-1000,645,758,-446,776000
43601000,-942,-333,-225,-121,-358,-13342,-11991,2647,-14751,-10772,240,-3480,-1519,645,763,-595,763000
43650000,-1247,-63,-333,54,-6,-19934,16267,5699,-10653,-14782,240,-3079,-2480,644,741,-632,748000
43701000,-1575,340,-999,-61,-1092,-9863,-10160,2159,-2698,-14528,240,-2040,-2840,645,727,-1173,727000
43750000,-1476,693,-169,185,-187,-13220,19258,5760,-255,-12011,359,-1519,-2760,645,736,-500,762000
43801000,-1305,1220,273,276,1310,-6689,2901,4295,2237,-7784,240,-920,-2560,645,729,-648,729000
43850000,-1159,1028,-164,115,1536,-6262,947,5394,6273,-5180,359,-80,-1920,645,733,-315,746000
43901000,-922,1515,-517,-27,29,-891,1497,3380,4664,671,359,-119,-1399,645,728,-589,728000
43950000,-678,1253,7,416,1128,-6567,-3751,3074,3477,3330,240,-80,-679,644,739,-78,740000
44001000,-395,1141,309,456,1926,-1867,6013,3441,1833,3844,359,-80,-479,646,729,-560,729000
44050000,-201,1244,115,120,1926,-280,-10099,4539,940,6302,240,-39,-160,645,708,-386,709000
44101000,25,696,-501,-45,-18,1794,-7658,4417,-612,3584,240,-80,-80,646,704,-722,704000
44150000,52,1051,173,392,1165,-6689,3023,5455,-538,5876,119,-39,-39,644,689,-251,698000
44201000,165,578,153,287,1926,1550,-13212,5272,-1424,2896,240,-80,-80,645,684,-702,684000
44250000,170,839,-263,38,1876,-585,3145,5455,-1688,4650,359,-119,-39,646,663,-577,678000
44301000,281,1002,-150,101,872,-1196,-16996,6920,-2103,5593,240,-80,-39,645,671,-556,671000
44350000,156,926,538,447,1926,-5285,7234,6065,-1142,4918,240,-39,-80,646,668,-234,679000
44401000,98,833,344,106,1926,2526,-15714,3746,-1271,4146,240,-119,-119,644,660,-411,660000
44450000,12,491,222,128,1926,-952,-3812,3258,-537,2161,119,-80,-119,646,658,-303,660000
44501000,-140,637,444,360,1926,-3942,-3873,3807,354,3007,240,-80,-119,659,655,-233,655000
44550000,-115,391,455,210,1926,1367,1192,4600,9505,-2838,240,1519,-880,659,648,-280,638000
44601000,-20,681,-113,-27,1926,3381,337,5089,13838,-923,240,2360,-839,659,611,-346,611000
44650000,172,907,806,-13,1926,11499,-2348,-1075,14575,158,359,2679,-880,657,632,-451,629000
44701000,357,1063,812,246,1926,5700,11873,3319,13502,-95,359,2679,-1080,659,617,-341,622000
44750000,419,1232,222,-113,1458,18212,-5094,3624,12672,887,240,2600,-1080,658,628,-807,638000
44801000,633,1568,212,-140,661,10278,8455,3502,3291,5167,240,1199,-679,657,625,-297,625000
44850000,640,1720,-85,-290,-481,9851,-10160,-404,-3257,3954,240,79,-1039,659,612,-579,634000
44901000,532,1812,310,-219,731,7226,8882,1610,-3330,1001,119,-39,-1640,657,622,-204,622000
44950000,421,2189,-154,-281,-51,7287,-8207,3197,-2449,2494,119,0,-1760,657,613,-364,623000
45001000,303,2106,304,-274,-370,4174,8760,206,-1764,2480,359,0,-1679,658,631,-158,631000
45050000,176,2252,-1113,-8,-1278,1428,-1249,4661,-1491,4487,240,-80,-1480,658,606,-417,623000
45101000,4,1667,-25,-285,-1103,9362,-11381,4600,-726,2254,359,-119,-1280,658,624,-703,624000
45150000,-179,1715,140,-58,-329,-1196,16389,1793,580,2529,119,-80,-1280,657,616,-369,631000
45201000,-387,1239,-801,-95,-827,3564,-13761,2891,2018,-237,240,-39,-1280,658,636,-284,636000
45250000,-372,903,188,371,1396,-4980,22493,3380,1697,-1956,240,-80,-1239,658,618,-358,613000
45301000,-610,924,-28,22,240,1123,-1371,1854,3085,-3231,240,-80,-1480,659,616,-608,616000
45350000,-621,487,-689,50,-443,1123,4426,4783,3145,-5769,359,-80,-1480,659,615,-136,620000
45401000,-726,1344,151,181,1605,-5529,20723,5150,3757,-322,240,-80,-1399,658,632,-137,632000
45450000,-807,1474,656,319,1926,2832,-1371,2708,4459,433,240,-39,-1399,658,636,-58,653000
45501000,-730,1933,-29,184,857,3564,12056,2403,3779,3103,240,-80,-1399,658,612,-425,612000
45550000,-656,2509,110,128,1925,4296,3511,511,3349,6219,240,-80,-1440,658,640,121,644000
45601000,-467,1881,1001,228,1926,-1562,4609,-465,2253,3264,240,-80,-1319,658,654,-332,654000
45650000,-410,1590,220,-139,1926,9179,10835,3685,1920,1569,359,-80,-1319,657,679,-427,660000
45701000,-187,1256,-8,83,1856,3076,-5338,-770,626,98,359,-80,-1239,658,701,-80,701000
45750000,-65,1067,579,242,1926,5639,9431,-2113,-316,623,359,-119,-959,657,662,62,695000
45801000,10,1340,385,-53,1926,2648,1253,-98,-527,2211,240,-80,-959,658,701,323,701000
45850000,60,899,151,-190,1355,4663,-12907,1365,-583,1042,359,-39,-720,659,708,84,676000
45901000,65,1158,31,66,1888,-1806,24324,-587,-844,2315,359,-80,-759,658,686,177,686000
45950000,143,1306,650,51,1926,6494,-15470,1976,-1997,4340,359,-199,-559,658,728,-108,728000
46001000,152,803,-136,-512,462,1550,-3995,1243,-1583,254,240,-119,-759,656,734,123,719000
46050000,27,1219,-738,33,674,-2661,-272,1304,-1789,2669,359,-279,-759,657,739,20,737000
46101000,121,793,193,-179,1627,-830,-11320,1976,-5353,-37,240,-800,-800,657,739,222,739000
46150000,54,1047,-231,156,1889,-6567,12483,5089,-15429,4462,119,-2600,-279,640,783,27,776000
46201000,-71,1337,-590,161,774,-7238,-14188,1610,-14930,6613,240,-2640,-199,641,784,211,784000
46250000,-197,1015,120,345,1926,-12365,1436,3258,-14429,4974,359,-2680,-160,642,784,227,791000
46301000,-561,900,-221,268,1229,-7299,-14921,-1929,-11846,4303,240,-2600,-160,642,806,67,806000
46350000,-773,478,-216,-369,1640,-1867,-17423,-3944,-2015,1617,240,-1119,-199,642,824,-158,814000
46401000,-936,468,232,-188,1081,-7116,-10465,-4249,795,399,119,-800,-399,641,819,-158,819000
46450000,-983,319,-396,-391,-850,-585,-22977,-5225,4555,-1632,359,-199,-599,643,826,-3,859000
46501000,-894,533,-247,138,-159,-6689,2351,633,4035,-2017,240,-199,-880,641,862,-96,858000
46550000,-910,616,62,361,673,-10839,-10038,-587,4595,-1762,359,-119,-920,643,846,-153,882000
46601000,-819,796,-584,156,895,1184,6074,1488,4299,-717,240,-80,-920,642,860,-71,860000
46650000,-505,1561,321,-43,1926,207,8699,-892,2703,3728,359,-39,-920,642,860,-178,863000
46701000,-451,1187,489,-93,1631,3137,-20292,-1319,2390,1325,240,-39,-959,642,858,170,858000
46750000,-358,1373,-285,108,1926,6921,6929,-3150,1385,2403,359,-119,-959,642,869,-9,885000
46801000,-309,1296,-17,-61,892,-4003,-24198,-4249,1333,1721,240,-80,-1000,643,894,-136,894000
46850000,-345,863,120,0,910,-2294,-3873,-98,1545,-1721,240,-80,-1160,642,890,261,886000
46901000,-246,1420,-281,-124,502,-524,-7291,267,733,1282,240,-119,-1200,643,875,-295,875000
46950000,-226,729,199,-255,-86,-4492,-29081,-1380,1082,-2502,359,-39,-1160,642,893,-109,891000
47001000,-110,1017,-477,-225,-41,3625,14680,1243,174,-1060,240,-80,-1200,641,879,-445,879000
47050000,39,1168,-94,345,1412,-2966,-10221,-343,-925,50,240,-119,-1160,643,903,-225,872000
47101000,24,447,259,-6,1926,1550,-8573,3319,-609,-4143,119,-80,-1160,642,904,-2,899000
47150000,19,1183,-291,-477,989,7348,9370,-1258,-345,-1723,240,-39,-1480,643,888,-276,884000
47201000,-41,971,-225,-336,575,4357,-23161,-2967,5,-4816,240,-39,-1799,643,884,-265,884000
47250000,-25,1170,-724,15,515,2099,14009,-1380,-319,-9471,240,-80,-2799,645,874,13,879000
47301000,231,2117,406,372,1926,4541,10408,1060,-1811,-9081,359,-80,-3680,644,879,-281,879000
47350000,369,2219,957,70,1926,3564,4182,145,-2844,-13837,720,-119,-4600,647,883,-83,869000
47401000,415,3189,597,-183,1557,4174,36348,-1868,-2883,-9594,240,-80,-4839,644,865,63,865000
47450000,319,3438,-429,-506,-21,9240,-8756,-4920,-2322,-6983,119,-80,-4640,643,863,-512,889000
47501000,280,3393,-706,-157,661,5273,25911,-2357,-1863,-3524,240,-39,-3999,645,871,-67,871000
47550000,289,3694,198,428,1926,2587,17061,-2357,-1914,3107,240,-39,-3159,644,849,1,852000
47601000,55,2890,-203,132,215,-5651,5403,-3455,-788,-168,240,-80,-2920,643,868,-340,868000
47650000,-174,2866,397,381,981,1245,28963,-1929,548,1551,359,-80,-2600,644,866,-101,861000
47701000,-121,2881,627,-130,1071,7409,2839,-5286,241,1405,240,-80,-2640,644,846,12,846000
47750000,-38,2770,-518,-492,-222,5456,9675,-5042,-238,525,240,-80,-2680,644,854,-166,845000
47801000,-21,2631,237,-213,1604,5090,-6681,-5958,-105,-2606,240,-39,-3079,644,841,-9,841000
47850000,75,2507,-408,-358,16,3198,10164,-4371,-668,-5185,359,-39,-3400,644,836,102,841000
47901000,79,2908,-56,76,342,-2233,17305,-2357,-926,-3089,240,-80,-3439,643,835,-340,835000
47950000,106,2394,-38,-11,7,1245,5952,-3394,-1081,-5144,240,-80,-3279,644,815,-363,808000
48001000,260,2611,-392,-72,1926,6677,21638,-3760,-1977,-3422,240,-80,-3200,644,816,49,816000
48050000,415,2689,-442,-198,459,2282,-6925,-3638,-2881,-2965,240,-80,-3200,644,816,61,817000
48101000,416,2475,-546,101,-584,-2905,12788,-526,-2655,-4211,240,-39,-3200,644,830,-412,830000
48150000,501,2499,-57,177,297,-2355,14985,-2418,-3614,-4305,240,-119,-3240,645,808,-470,796000
48201000,637,2372,-147,-15,1717,2465,6990,-2845,-4402,-4811,240,-119,-3200,644,800,-90,800000
48250000,537,2206,-446,137,1584,-3576,9981,-1624,-3589,-2520,119,-80,-2640,644,788,-96,785000
48301000,282,1732,-411,113,376,-6506,-10160,-2601,-3039,-2254,240,-240,-2120,645,787,-641,787000
48350000,-3,1117,-149,145,668,-12182,12544,-770,-7654,-1872,359,-1319,-1440,643,760,-590,787000
48401000,-415,999,-902,-99,559,-7299,-6498,-1319,-5490,-2557,240,-1360,-1440,643,750,-531,750000
48450000,-749,515,-520,271,1926,-16333,6135,3258,-4479,-4676,359,-1519,-1319,644,733,-315,754000
48501000,-1091,523,812,241,1926,-8154,-4179,-953,-5283,-3933,720,-2000,-1200,647,720,-664,720000
48550000,-1158,273,562,-272,1926,-5957,-7841,-5347,-4893,-3295,240,-2000,-839,644,717,-673,739000
48601000,-1377,521,672,41,1167,-14929,11934,-4554,-2920,-1849,240,-1879,-839,644,719,-496,714000
48650000,-1577,328,91,-66,-86,-6018,-17118,-5836,1959,-1808,240,-1239,-640,644,701,-717,718000
48701000,-1529,276,-61,128,215,-5712,6257,-2845,5637,-2811,359,-559,-759,645,698,-384,698000
48750000,-1482,551,34,109,889,390,-12846,-3089,7224,-981,240,-240,-720,644,693,-656,684000
48801000,-1404,166,594,173,1926,-6628,-1554,-3272,6768,-3684,240,-240,-800,643,672,-452,665000
48850000,-1188,678,448,-239,1344,5090,-11198,-5042,5980,-708,359,-160,-800,643,674,-380,638000
48901000,-875,387,-758,-251,-652,390,-20414,-3272,4157,-4023,240,-160,-1080,644,636,-548,636000
48950000,-705,413,-370,98,8,-1867,-6498,-1014,3405,-4337,359,-119,-1160,643,643,-481,650000
49001000,-593,502,-625,-52,299,8813,-15165,-2296,2985,-5217,240,-80,-1399,644,621,-629,621000
49050000,-529,532,-515,-222,602,1550,-28,-1502,2611,-5972,240,-80,-1560,644,648,-652,632000
49101000,-570,943,249,-175,1926,4846,-10465,-1258,2853,-4278,240,-80,-1679,645,605,-226,605000
49150000,-331,793,148,56,1926,8203,-4057,-526,1696,-4689,240,-39,-1599,643,609,-347,619000
49201000,-307,1190,-100,-60,593,-5651,-5521,-1929,1089,-2378,240,-119,-1599,644,601,-520,601000
49250000,-181,967,13,45,2,4602,-9428,-1563,356,-3443,240,-119,-1560,644,582,-173,585000
49301000,68,1403,263,-96,150,2526,5159,1243,-861,-1142,240,-80,-1599,644,566,-409,566000
49350000,42,1214,195,-125,-515,2099,-17362,1365,-709,-2241,480,-80,-1599,645,573,-489,560000
49401000,169,987,-312,-119,1808,9301,2046,4356,-1448,-3096,359,-80,-1519,644,552,-49,552000
49450000,189,1344,-184,-170,1610,1123,-6803,877,-1332,-1253,240,-39,-1560,645,556,-296,570000
49501000,-27,988,-194,18,1926,1550,-14555,1243,-305,-3087,240,-80,-1519,645,558,-214,558000
49550000,-40,1305,-423,213,1512,5090,7722,3563,-228,-1244,119,-80,-1519,645,548,-261,526000
49601000,-143,1277,-254,235,322,-6079,-13761,3624,367,-1407,359,-80,-1519,661,548,-525,548000
49650000,-320,1203,-98,186,1287,-4125,8760,4539,1400,-2071,240,-80,-1560,663,525,-118,517000
49701000,-266,1615,635,78,1926,1611,-5643,572,1081,320,359,-80,-1560,664,505,-569,505000
49750000,-414,1571,-111,-383,1053,4541,-7597,1121,1713,-168,119,-119,-1599,662,538,-418,503000
49801000,-325,1994,43,-336,690,7409,-394,2891,1425,2755,240,-80,-1519,663,479,-597,479000
49850000,-328,2014,200,-77,1132,-1074,-9977,-98,1447,2641,240,-80,-1560,663,452,-288,484000
49901000,-301,2062,-360,151,1174,3076,3938,2220,1288,2456,359,-80,-1640,663,485,-337,485000
49950000,-366,2032,377,325,1926,-1745,-3690,4417,1664,2282,240,-80,-1640,663,423,-342,435000
50001000,-342,1903,142,382,1864,268,10225,5394,1757,1068,359,-39,-1720,662,440,-174,440000
50050000,-269,2122,63,18,1926,8813,-3385,3868,868,2574,599,-119,-1679,665,464,-81,446000
50101000,-259,1738,450,63,1926,1245,-4972,2464,1040,338,720,-80,-1679,666,400,-382,400000
50150000,-312,2212,-371,-334,750,9179,9797,511,1349,2864,119,-80,-1720,661,408,-542,440000
50201000,-293,2253,-140,-364,614,756,-14494,5394,1242,3567,240,-80,-1640,662,422,-212,422000
50250000,-267,1826,199,79,1926,85,9614,7286,856,1319,240,-119,-1599,662,410,-274,410000
50301000,-275,2529,-335,104,226,5029,6746,7286,-3745,9123,240,-920,-959,663,448,-41,407000
50350000,-396,1858,393,252,1116,-6079,-12235,8873,-15831,10107,240,-3120,-119,663,410,-167,395000
50401000,-866,1547,153,252,1926,-7360,7783,5699,-16820,8298,119,-3760,-119,662,393,71,393000
50450000,-1316,2187,43,34,1105,-8947,-4240,7591,-21642,12249,119,-5039,-80,662,404,-122,369000
50501000,-1622,1684,749,-30,1416,-13281,93,7652,-19630,9094,240,-5000,-119,663,399,106,399000
50550000,-2091,1881,-321,-437,-157,-14440,-211,6798,-10860,10237,240,-3960,-119,662,396,118,393000
50601000,-2350,1761,634,166,1875,-10656,-13578,1793,-4239,9074,119,-3079,-199,662,425,393,425000
50650000,-2454,1319,300,-131,707,-7116,-11076,5272,6131,4878,119,-1399,-479,661,453,178,447000
50701000,-2326,1541,-203,-62,1010,-341,764,6187,10266,5702,240,-559,-559,662,476,367,476000
50750000,-1963,1534,225,-201,1926,2099,-4911,755,11182,3803,1080,-39,-880,669,495,119,508000
50801000,-1707,1851,322,-72,1926,1733,2473,4844,9458,5879,119,-80,-839,663,499,247,499000
50850000,-1289,1842,490,28,1579,4907,-5704,2586,7030,6060,119,-80,-800,662,515,-124,529000
50901000,-1131,1731,223,-275,1069,5761,3816,206,6110,5416,119,-80,-800,661,536,234,536000
50950000,-913,1015,-329,-503,-1450,10400,-23832,3013,5078,786,119,-39,-880,662,560,16,538000
51001000,-653,207,122,-143,1506,2221,6746,2281,3102,-3906,119,-119,-880,661,557,338,557000
51050000,-567,123,-1009,-62,-421,-36,-9367,4112,2832,-4162,240,-80,-839,661,583,284,586000
51101000,-504,157,-986,-348,-1349,8508,-5094,4173,2697,-4199,240,-39,-880,661,598,-382,598000
51150000,-412,847,21,126,-100,-952,13887,3685,1932,43,119,-80,-839,661,571,-53,592000
51201000,-333,581,-723,-75,-87,5395,-17057,5455,1707,-1502,240,-39,-839,661,603,-134,603000
51250000,-181,826,48,399,1553,451,23164,5699,592,-78,240,-80,-839,661,614,21,615000
51301000,-119,1415,-114,173,453,2832,-3080,4600,463,3111,240,-39,-880,662,644,-79,644000
51350000,-2,933,-616,148,-183,3442,-5888,10643,-683,313,240,-119,-880,661,637,279,651000
51401000,2,1623,410,177,1749,1489,15169,6370,-481,4090,119,-80,-920,660,671,101,671000
51450000,-7,1215,27,-233,653,5273,-26029,2464,-189,-374,119,-39,-1280,660,705,377,704000
51501000,16,1414,-293,-31,730,2587,20051,7286,-558,779,240,-80,-1280,661,735,316,735000
51550000,-70,2170,509,-169,862,3259,-5155,3380,174,4711,240,-39,-1360,659,762,425,761000
51601000,-138,1615,-481,-493,-759,5456,-16264,5089,341,1020,119,-80,-1440,657,778,341,778000
51650000,-180,2184,11,126,1329,-158,14741,2952,814,3864,240,-39,-1519,635,796,453,809000
51701000,-249,2140,149,-400,-503,7043,-17240,938,983,3604,119,-80,-1519,635,834,125,834000
51750000,-298,1768,-605,-284,-933,2954,-3019,2708,1271,1674,119,-80,-1480,635,868,558,854000
51801000,-338,2339,44,98,-565,-463,11873,3258,1732,4994,240,-39,-1480,636,917,435,917000
51850000,-323,2029,-476,-297,-962,878,-16935,3929,1416,-1455,240,-80,-2280,636,925,301,944000
51901000,-319,2092,129,-291,1168,6921,9187,755,1160,-2252,119,-119,-2480,635,944,623,944000
51950000,-205,2188,-591,-448,727,4052,-16508,1304,-4620,-1461,240,-1000,-2439,636,967,168,954000
52001000,-314,1701,344,-129,1748,-3271,2839,-37,-3753,-3827,119,-959,-2359,635,973,512,973000
52050000,-346,1776,103,-158,1554,1245,-3080,511,-5194,-2926,119,-1239,-2280,636,1006,453,981000
52101000,-464,1532,832,221,1536,-10107,3267,3197,-7763,-2487,240,-1799,-1959,637,989,324,989000
52150000,-757,1378,-32,-100,305,-5224,-7413,755,-12802,-126,240,-2960,-1399,637,1026,226,1032000
52201000,-1114,1302,44,-230,-884,-16027,3450,1427,-11189,130,240,-3040,-1280,638,1035,142,1035000
52250000,-1530,1210,550,-87,649,-16149,-6742,-1929,-12724,3314,240,-3719,-640,639,1053,160,1051000
52301000,-1838,1117,-158,59,1926,-17309,11629,3074,-12567,5331,119,-3999,-199,638,1059,467,1059000
52350000,-2168,1420,847,256,1926,-14868,2962,-1014,-10645,7557,240,-3999,-119,640,1083,-106,1079000
52401000,-2345,808,556,53,1926,-13952,-10526,267,-9617,4000,240,-3999,-119,641,1094,264,1099000
52450000,-2407,856,-111,-312,1837,-7543,2290,-2174,-1353,1955,240,-2640,-520,641,1130,42,1116000
52501000,-2275,703,622,321,1857,-12854,-944,-953,11833,-2883,119,-240,-1200,640,1130,122,1130000
52550000,-2032,595,5,-153,948,-1562,-3690,-2418,11347,-3748,119,-80,-1239,640,1140,-10,1127000
52601000,-1629,1019,-244,-274,974,-5957,-2653,450,9005,-1280,119,-80,-1239,640,1145,106,1145000
52650000,-1481,737,-140,-290,577,-6262,-12968,84,7913,-2687,240,-119,-1200,640,1148,141,1157000
52701000,-1296,1183,68,-234,-659,-2111,11995,2586,7069,367,240,-80,-1119,642,1143,-321,1143000
52750000,-1109,1394,-200,-423,-259,-3942,-12785,-404,5986,1363,240,-80,-1160,642,1153,57,1159000
52801000,-1079,1349,-278,-443,-592,-4675,11079,-281,5811,1100,119,-80,-1160,643,1168,-82,1168000
52850000,-915,1692,-128,-60,910,-4736,1192,-1197,4857,1233,240,-80,-1480,657,1165,-34,1162000
52901000,-710,1762,204,-228,-313,1550,11567,2403,3898,-4402,359,-39,-2519,656,1172,-304,1172000
52950000,-618,2019,296,-117,55,-402,13154,-1319,28240,-10119,240,4240,-3760,655,1179,95,1181000
53001000,-183,2119,705,-102,985,17541,15474,-709,39201,-8607,240,6559,-3600,656,1174,135,1174000
53050000,674,2382,843,32,1365,24804,14131,-1807,34444,-1266,240,6600,-2600,656,1177,101,1174000
53101000,1432,2391,772,485,1640,20471,24934,2830,29803,2274,359,6559,-2000,656,1189,243,1189000
53150000,2129,2787,696,8,795,32373,15840,-281,11800,12020,240,4159,-720,656,1174,-232,1181000
53201000,2614,2836,-127,-259,-1029,22241,3206,1365,-2643,15328,119,2160,-199,655,1176,-249,1176000
53250000,2686,2718,328,-136,389,16748,3816,-3211,-15846,15571,240,-39,-39,655,1190,-323,1185000
53301000,2307,2491,341,361,1926,4785,7295,755,-13877,13786,240,-80,-119,656,1212,127,1212000
53350000,1997,2051,314,225,1926,13574,-2592,-220,-12076,11226,240,-80,-119,656,1211,-532,1200000
53401000,1636,1557,-33,74,1926,1550,-4850,1732,-9975,8120,119,-80,-160,655,1204,18,1204000
53450000,1301,1227,556,89,1926,6066,-6437,-3944,-8031,6669,119,-80,-80,655,1203,-126,1220000
53501000,1032,939,473,508,1635,-5895,5281,1365,-6464,4998,119,-80,-80,656,1224,-51,1224000
53550000,700,836,374,223,1240,878,-6742,2830,-4302,4627,240,-39,-39,655,1228,242,1197000
53601000,474,738,292,32,600,-97,-8146,3197,-3222,5685,240,-80,239,655,1208,-17,1208000
53650000,157,590,414,-79,1104,-2355,-11381,-3150,-1146,8547,119,-39,880,655,1212,142,1223000
53701000,11,293,566,331,1926,85,1497,2708,-533,3334,240,-80,280,654,1219,320,1219000
53750000,-136,169,360,82,1335,5761,-4118,2281,326,754,240,-80,-39,603,1228,-314,1233000
53801000,-286,143,-15,-301,609,4296,-10404,3319,1433,371,119,-39,-80,554,1253,146,1253000
53850000,-368,340,17,-158,1049,3747,-5094,-1807,1674,1516,119,-80,-80,549,1252,-206,1259000
53901000,-526,391,-583,-12,333,-6994,-8756,-1502,2361,1810,0,-119,-80,596,1261,-380,1246000
53950000,-642,358,-827,-326,-27,5029,-16508,2403,3267,1384,119,-80,-119,622,1245,-80,1250000
54001000,-474,392,-798,-240,1312,10156,-22367,3380,2292,1813,119,-80,-80,628,1234,96,1234000
54050000,-363,299,-230,-102,53,-97,-12540,4906,1646,1274,119,-80,-80,635,1243,238,1242000
54101000,-369,900,-538,-166,1046,9423,2229,2891,1680,4767,119,-80,-80,671,1221,226,1221000
54150000,-387,757,-1037,-312,508,268,-18644,1732,2022,3473,119,-39,-160,677,1209,-88,1214000
54201000,-549,729,-190,217,1745,-2050,4976,3319,2962,2847,240,-39,-240,685,1206,-210,1217000
54250000,-605,842,-35,180,1458,2893,2229,5638,3285,2574,240,-39,-399,685,1194,-173,1183000
54301000,-645,805,-462,67,1424,-4003,-2592,511,3289,2357,119,-80,-399,685,1195,2,1195000
54350000,-790,797,49,303,1864,-4797,4365,3807,4129,2540,240,-80,-360,684,1183,26,1190000
54401000,-778,472,791,343,1737,-2783,-2653,2342,4063,887,240,-80,-319,684,1184,112,1184000
54450000,-1007,739,-496,-365,45,-3881,3694,3624,5390,3133,119,-80,-199,685,1153,10,1181000
54501000,-1032,539,-51,-153,782,-708,-8207,4356,5535,2205,240,-80,-160,684,1169,-16,1169000
54550000,-1206,888,168,-20,1904,-7238,6990,-1136,6781,4002,240,-39,-199,684,1167,59,1174000
54601000,-1176,739,-192,-19,774,3259,-15287,-2845,6604,3368,240,-39,-160,684,1174,155,1174000
54650000,-1108,913,-252,40,-230,-6750,14375,3258,5976,4148,240,-80,-199,684,1182,132,1185000
54701000,-1140,1204,-699,105,523,-769,-4423,-1380,6399,5840,240,-39,-199,684,1198,137,1198000
54750000,-810,810,544,477,1529,6066,-1920,-1136,4244,3547,240,-80,-199,682,1200,348,1186000
54801000,-739,878,123,-317,315,-4187,1924,511,3834,3244,119,-80,-319,658,1207,188,1207000
54850000,-682,563,-607,-369,291,2587,-19620,-3822,3501,-1839,119,-80,-880,653,1208,119,1212000
54901000,-405,790,-612,-336,-595,-3637,20601,-220,2122,-2148,240,-39,-1160,650,1214,-145,1214000
54950000,-439,1340,-489,-46,0,-7910,7539,1549,2321,1511,240,-39,-1080,650,1243,358,1233000
55001000,-287,1127,176,138,1560,-6811,215,1610,1203,2833,240,-80,-640,650,1264,76,1271000
55050000,-150,1626,233,450,1926,-3576,15779,-220,643,6667,240,-39,-479,651,1281,322,1268000
55101000,-20,1536,290,88,482,-1013,-15958,-3089,-348,7304,240,-80,-279,650,1310,65,1310000
55150000,-13,1509,206,110,583,-2905,12056,877,-151,6447,119,-39,-399,650,1314,319,1309000
55201000,110,2183,-165,-149,164,-158,-7047,694,-1107,10601,240,-80,-360,619,1338,246,1338000
55250000,165,1726,-570,-408,-726,-2416,-16447,145,-1661,7941,119,-119,-360,612,1355,280,1372000
55301000,239,2284,-290,-483,-384,-3698,16450,4661,-1857,11420,119,-80,-319,614,1380,38,1380000
55350000,277,2365,-240,-381,307,-6994,-6803,5455,-2079,11658,240,-80,-360,614,1378,-265,1390000
55401000,273,1926,0,-102,234,3991,-9122,1854,-2053,8871,240,-80,-399,614,1382,1,1382000
55450000,214,1675,43,234,1926,-7604,2778,694,-1709,7417,240,-80,-399,613,1423,47,1397000
55501000,91,1654,-515,-259,266,-7116,6013,2891,-995,7059,119,-80,-440,613,1425,-447,1425000
55550000,222,1877,-319,-378,-80,-2294,11934,2220,-1761,4171,240,-80,-1160,614,1430,56,1408000
55601000,323,1625,175,194,743,-6872,-15470,5211,-2344,2706,240,-80,-1160,614,1441,-171,1441000
55650000,122,1621,944,440,1853,-7788,16511,4600,-712,-338,119,0,-1679,614,1434,-5,1454000
55701000,304,2023,668,235,1290,-1135,20296,755,10786,2460,240,2160,-1599,613,1439,-66,1441000
55750000,545,2100,-268,4,551,1672,4609,1671,21244,2678,119,4200,-1640,614,1453,159,1452000
55801000,1097,1635,943,448,1862,17602,6196,5943,18500,-489,240,4279,-1720,613,1436,313,1436000
55850000,1575,1453,81,28,1861,15771,14924,4661,15718,-6198,240,4279,-2519,613,1422,-627,1421000
55901000,1681,1401,-915,-361,478,12780,6318,6553,3480,-6503,240,2279,-2519,613,1407,-307,1419000
55950000,1775,1658,-557,-528,220,15039,4426,3990,-10320,-5007,240,0,-2519,613,1410,-377,1405000
56001000,1543,1884,-421,-49,1091,-1806,3755,7408,-9437,-3462,119,-80,-2480,613,1375,-373,1375000
56050000,1293,1694,-417,-8,27,329,-3385,6798,-7982,-4801,240,-80,-2519,612,1394,88,1372000
56101000,1257,1862,359,309,1432,-1013,6135,7103,-7772,-3822,240,-80,-2519,611,1335,-532,1335000
56150000,919,1865,414,164,1560,-7360,5769,5272,-5812,-4034,240,-80,-2560,608,1343,-411,1323000
56201000,656,1724,944,287,1066,2160,13276,5516,-4281,-5091,119,-80,-2600,572,1295,-454,1295000
56250000,402,1885,-48,59,1195,-2844,15962,7164,-2803,-4619,119,-80,-2680,561,1275,-1120,1258000
56301000,-30,1788,-622,-484,-354,-5346,-2348,7347,-520,-5182,240,-119,-2680,562,1246,-890,1246000
56350000,-227,1820,-392,-93,491,-341,5098,6492,854,-12901,119,-80,-4040,571,1226,-1066,1237000
56401000,-348,2144,985,-28,-30,-2539,12361,2403,1559,-36593,240,-80,-8440,572,1190,-1285,1190000
56450000,-335,2184,656,69,965,-4309,38545,4234,1484,-58916,359,-80,-12320,582,1168,-1430,1165000
56501000,-228,3067,179,-179,1182,-341,55574,7835,862,-67965,240,-80,-14760,619,1143,-778,1143000
56550000,-189,4777,482,-152,1926,3503,58748,3624,634,-58954,240,-80,-14920,658,1096,-938,1097000
56601000,-109,5930,-311,7,464,-5346,41719,7225,402,-52487,359,-39,-14960,661,1047,-1340,1047000
56650000,3,6910,404,248,1733,4235,64363,6492,-717,-47489,359,-119,-15080,664,1037,-885,1037000
56701000,335,8204,371,-90,1096,13208,37507,4539,-2413,-34150,359,-80,-14080,664,972,-885,972000
56750000,386,8235,252,230,1926,-36,39155,6798,-2711,-5373,359,-80,-9160,664,959,-592,950000
56801000,208,7998,-225,10,1679,-3149,28474,5089,-1445,17431,480,-39,-5000,662,908,-820,908000
56850000,197,7241,-167,-267,730,7043,-5338,877,-1613,41860,4440,-80,-39,527,872,-849,859000
56901000,177,5443,534,72,1330,3259,-18888,-2296,-1727,39549,1799,-119,1359,451,794,-742,794000
56950000,8,3572,540,196,1923,695,-17606,-5531,-515,34481,2640,-80,2360,316,754,-1129,740000
57001000,-230,1448,-254,365,-578,-5895,-36832,-5531,872,17253,10800,-80,1519,182,665,-1954,665000
57050000,-353,-330,-511,97,1350,2709,-66740,-10963,1591,868,21480,-80,480,0,619,-1949,599000
57101000,-553,-2299,-142,-143,512,-13220,-64786,-15052,2519,-13834,21720,-119,-80,0,519,-2200,519000
57150000,-847,-4429,-117,-119,450,-14440,-86942,-16456,4227,-30633,28080,-119,-839,0,519,-2042,5
